,battery_name,block_duration,choice,exp_id,exp_stage,experiment_exp_id,finishtime,focus_shifts,full_screen,internal_node_id,key_press,large_amt,later_del,possible_responses,responses,rt,small_amt,stim_duration,stimulus,time_elapsed,trial_id,trial_index,trial_type,view_history,worker_id
kirby_0_0,Self Regulation Pilot,,,,,kirby,2016-04-08T17:28:06.852787Z,,,0.0-0.0-0.0,13,,,,,4860,,,,4876,instruction,0,poldrack-text,,175c923b-6b6e-4fc1-9e17-4f912faaaa3a
kirby_0_1,Self Regulation Pilot,,,,,kirby,2016-04-08T17:28:06.852787Z,,,0.0-0.0-1.0,,,,,,20928,,,,25804,instruction,1,poldrack-instructions,"[{""page_index"":0,""viewing_time"":20928}]",175c923b-6b6e-4fc1-9e17-4f912faaaa3a
kirby_0_2,Self Regulation Pilot,,,,,kirby,2016-04-08T17:28:06.852787Z,,,0.0-1.0,13,,,,,4553,,,,31386,practice_intro,2,poldrack-text,,175c923b-6b6e-4fc1-9e17-4f912faaaa3a
kirby_0_3,Self Regulation Pilot,5386,,,practice,kirby,2016-04-08T17:28:06.852787Z,,,0.0-2.0,80,,,"[80, 81]",,5386,,5386,<div class = centerbox id='container'><p class = center-block-text>Please select the option that you would prefer pressing <strong>'q'</strong> for left <strong>'p'</strong> for right:</p><div class='table'><div class='row'><div id = 'option'><center><font color='green'>$20<br>today</font></center></div><div id = 'option'><center><font color='green'>$25<br>5 days</font></center></div></div></div></div>,37787,stim,3,poldrack-single-stim,,175c923b-6b6e-4fc1-9e17-4f912faaaa3a
kirby_0_4,Self Regulation Pilot,,,,,kirby,2016-04-08T17:28:06.852787Z,,,0.0-4.0,13,,,,,2640,,,,41433,test_intro,4,poldrack-text,,175c923b-6b6e-4fc1-9e17-4f912faaaa3a
kirby_0_5,Self Regulation Pilot,4825,,,test,kirby,2016-04-08T17:28:06.852787Z,,,0.0-5.0-0.0,81,55,117,"[80, 81]",,4825,54,4825,<div class = centerbox id='container'><p class = center-block-text>Please select the option that you would prefer pressing <strong>'q'</strong> for left <strong>'p'</strong> for right:</p><div class='table'><div class='row'><div id = 'option'><center><font color='green'>$54<br>today</font></center></div><div id = 'option'><center><font color='green'>$55<br>117 days</font></center></div></div></div></div>,47268,stim,5,poldrack-single-stim,,175c923b-6b6e-4fc1-9e17-4f912faaaa3a
kirby_0_6,Self Regulation Pilot,2381,,,test,kirby,2016-04-08T17:28:06.852787Z,,,0.0-5.0-1.0,80,75,61,"[80, 81]",,2381,55,2381,<div class = centerbox id='container'><p class = center-block-text>Please select the option that you would prefer pressing <strong>'q'</strong> for left <strong>'p'</strong> for right:</p><div class='table'><div class='row'><div id = 'option'><center><font color='green'>$55<br>today</font></center></div><div id = 'option'><center><font color='green'>$75<br>61 days</font></center></div></div></div></div>,50666,stim,6,poldrack-single-stim,,175c923b-6b6e-4fc1-9e17-4f912faaaa3a
kirby_0_7,Self Regulation Pilot,3090,,,test,kirby,2016-04-08T17:28:06.852787Z,,,0.0-5.0-2.0,80,25,53,"[80, 81]",,3090,19,3090,<div class = centerbox id='container'><p class = center-block-text>Please select the option that you would prefer pressing <strong>'q'</strong> for left <strong>'p'</strong> for right:</p><div class='table'><div class='row'><div id = 'option'><center><font color='green'>$19<br>today</font></center></div><div id = 'option'><center><font color='green'>$25<br>53 days</font></center></div></div></div></div>,54762,stim,7,poldrack-single-stim,,175c923b-6b6e-4fc1-9e17-4f912faaaa3a
kirby_0_8,Self Regulation Pilot,2477,,,test,kirby,2016-04-08T17:28:06.852787Z,,,0.0-5.0-3.0,80,85,7,"[80, 81]",,2477,31,2477,<div class = centerbox id='container'><p class = center-block-text>Please select the option that you would prefer pressing <strong>'q'</strong> for left <strong>'p'</strong> for right:</p><div class='table'><div class='row'><div id = 'option'><center><font color='green'>$31<br>today</font></center></div><div id = 'option'><center><font color='green'>$85<br>7 days</font></center></div></div></div></div>,58241,stim,8,poldrack-single-stim,,175c923b-6b6e-4fc1-9e17-4f912faaaa3a
kirby_0_9,Self Regulation Pilot,1562,,,test,kirby,2016-04-08T17:28:06.852787Z,,,0.0-5.0-4.0,80,25,19,"[80, 81]",,1562,14,1562,<div class = centerbox id='container'><p class = center-block-text>Please select the option that you would prefer pressing <strong>'q'</strong> for left <strong>'p'</strong> for right:</p><div class='table'><div class='row'><div id = 'option'><center><font color='green'>$14<br>today</font></center></div><div id = 'option'><center><font color='green'>$25<br>19 days</font></center></div></div></div></div>,60820,stim,9,poldrack-single-stim,,175c923b-6b6e-4fc1-9e17-4f912faaaa3a
kirby_0_10,Self Regulation Pilot,2723,,,test,kirby,2016-04-08T17:28:06.852787Z,,,0.0-5.0-5.0,81,50,160,"[80, 81]",,2723,47,2723,<div class = centerbox id='container'><p class = center-block-text>Please select the option that you would prefer pressing <strong>'q'</strong> for left <strong>'p'</strong> for right:</p><div class='table'><div class='row'><div id = 'option'><center><font color='green'>$47<br>today</font></center></div><div id = 'option'><center><font color='green'>$50<br>160 days</font></center></div></div></div></div>,64554,stim,10,poldrack-single-stim,,175c923b-6b6e-4fc1-9e17-4f912faaaa3a
kirby_0_11,Self Regulation Pilot,1371,,,test,kirby,2016-04-08T17:28:06.852787Z,,,0.0-5.0-6.0,80,35,13,"[80, 81]",,1371,15,1371,<div class = centerbox id='container'><p class = center-block-text>Please select the option that you would prefer pressing <strong>'q'</strong> for left <strong>'p'</strong> for right:</p><div class='table'><div class='row'><div id = 'option'><center><font color='green'>$15<br>today</font></center></div><div id = 'option'><center><font color='green'>$35<br>13 days</font></center></div></div></div></div>,66931,stim,11,poldrack-single-stim,,175c923b-6b6e-4fc1-9e17-4f912faaaa3a
kirby_0_12,Self Regulation Pilot,1648,,,test,kirby,2016-04-08T17:28:06.852787Z,,,0.0-5.0-7.0,80,60,14,"[80, 81]",,1648,25,1648,<div class = centerbox id='container'><p class = center-block-text>Please select the option that you would prefer pressing <strong>'q'</strong> for left <strong>'p'</strong> for right:</p><div class='table'><div class='row'><div id = 'option'><center><font color='green'>$25<br>today</font></center></div><div id = 'option'><center><font color='green'>$60<br>14 days</font></center></div></div></div></div>,69589,stim,12,poldrack-single-stim,,175c923b-6b6e-4fc1-9e17-4f912faaaa3a
kirby_0_13,Self Regulation Pilot,2620,,,test,kirby,2016-04-08T17:28:06.852787Z,,,0.0-5.0-8.0,81,80,192,"[80, 81]",,2620,78,2620,<div class = centerbox id='container'><p class = center-block-text>Please select the option that you would prefer pressing <strong>'q'</strong> for left <strong>'p'</strong> for right:</p><div class='table'><div class='row'><div id = 'option'><center><font color='green'>$78<br>today</font></center></div><div id = 'option'><center><font color='green'>$80<br>192 days</font></center></div></div></div></div>,73217,stim,13,poldrack-single-stim,,175c923b-6b6e-4fc1-9e17-4f912faaaa3a
kirby_0_14,Self Regulation Pilot,1308,,,test,kirby,2016-04-08T17:28:06.852787Z,,,0.0-5.0-9.0,80,55,62,"[80, 81]",,1308,40,1308,<div class = centerbox id='container'><p class = center-block-text>Please select the option that you would prefer pressing <strong>'q'</strong> for left <strong>'p'</strong> for right:</p><div class='table'><div class='row'><div id = 'option'><center><font color='green'>$40<br>today</font></center></div><div id = 'option'><center><font color='green'>$55<br>62 days</font></center></div></div></div></div>,75539,stim,14,poldrack-single-stim,,175c923b-6b6e-4fc1-9e17-4f912faaaa3a
kirby_0_15,Self Regulation Pilot,1230,,,test,kirby,2016-04-08T17:28:06.852787Z,,,0.0-5.0-10.0,80,30,7,"[80, 81]",,1230,11,1230,<div class = centerbox id='container'><p class = center-block-text>Please select the option that you would prefer pressing <strong>'q'</strong> for left <strong>'p'</strong> for right:</p><div class='table'><div class='row'><div id = 'option'><center><font color='green'>$11<br>today</font></center></div><div id = 'option'><center><font color='green'>$30<br>7 days</font></center></div></div></div></div>,77779,stim,15,poldrack-single-stim,,175c923b-6b6e-4fc1-9e17-4f912faaaa3a
kirby_0_16,Self Regulation Pilot,2302,,,test,kirby,2016-04-08T17:28:06.852787Z,,,0.0-5.0-11.0,80,75,119,"[80, 81]",,2302,67,2302,<div class = centerbox id='container'><p class = center-block-text>Please select the option that you would prefer pressing <strong>'q'</strong> for left <strong>'p'</strong> for right:</p><div class='table'><div class='row'><div id = 'option'><center><font color='green'>$67<br>today</font></center></div><div id = 'option'><center><font color='green'>$75<br>119 days</font></center></div></div></div></div>,81091,stim,16,poldrack-single-stim,,175c923b-6b6e-4fc1-9e17-4f912faaaa3a
kirby_0_17,Self Regulation Pilot,1593,,,test,kirby,2016-04-08T17:28:06.852787Z,,,0.0-5.0-12.0,81,35,186,"[80, 81]",,1593,34,1593,<div class = centerbox id='container'><p class = center-block-text>Please select the option that you would prefer pressing <strong>'q'</strong> for left <strong>'p'</strong> for right:</p><div class='table'><div class='row'><div id = 'option'><center><font color='green'>$34<br>today</font></center></div><div id = 'option'><center><font color='green'>$35<br>186 days</font></center></div></div></div></div>,83701,stim,17,poldrack-single-stim,,175c923b-6b6e-4fc1-9e17-4f912faaaa3a
kirby_0_18,Self Regulation Pilot,1377,,,test,kirby,2016-04-08T17:28:06.852787Z,,,0.0-5.0-13.0,80,50,21,"[80, 81]",,1377,27,1377,<div class = centerbox id='container'><p class = center-block-text>Please select the option that you would prefer pressing <strong>'q'</strong> for left <strong>'p'</strong> for right:</p><div class='table'><div class='row'><div id = 'option'><center><font color='green'>$27<br>today</font></center></div><div id = 'option'><center><font color='green'>$50<br>21 days</font></center></div></div></div></div>,86088,stim,18,poldrack-single-stim,,175c923b-6b6e-4fc1-9e17-4f912faaaa3a
kirby_0_19,Self Regulation Pilot,1174,,,test,kirby,2016-04-08T17:28:06.852787Z,,,0.0-5.0-14.0,80,85,91,"[80, 81]",,1174,69,1174,<div class = centerbox id='container'><p class = center-block-text>Please select the option that you would prefer pressing <strong>'q'</strong> for left <strong>'p'</strong> for right:</p><div class='table'><div class='row'><div id = 'option'><center><font color='green'>$69<br>today</font></center></div><div id = 'option'><center><font color='green'>$85<br>91 days</font></center></div></div></div></div>,88277,stim,19,poldrack-single-stim,,175c923b-6b6e-4fc1-9e17-4f912faaaa3a
kirby_0_20,Self Regulation Pilot,1592,,,test,kirby,2016-04-08T17:28:06.852787Z,,,0.0-5.0-15.0,80,60,89,"[80, 81]",,1592,49,1592,<div class = centerbox id='container'><p class = center-block-text>Please select the option that you would prefer pressing <strong>'q'</strong> for left <strong>'p'</strong> for right:</p><div class='table'><div class='row'><div id = 'option'><center><font color='green'>$49<br>today</font></center></div><div id = 'option'><center><font color='green'>$60<br>89 days</font></center></div></div></div></div>,90883,stim,20,poldrack-single-stim,,175c923b-6b6e-4fc1-9e17-4f912faaaa3a
kirby_0_21,Self Regulation Pilot,3593,,,test,kirby,2016-04-08T17:28:06.852787Z,,,0.0-5.0-16.0,80,85,157,"[80, 81]",,3593,80,3593,<div class = centerbox id='container'><p class = center-block-text>Please select the option that you would prefer pressing <strong>'q'</strong> for left <strong>'p'</strong> for right:</p><div class='table'><div class='row'><div id = 'option'><center><font color='green'>$80<br>today</font></center></div><div id = 'option'><center><font color='green'>$85<br>157 days</font></center></div></div></div></div>,95494,stim,21,poldrack-single-stim,,175c923b-6b6e-4fc1-9e17-4f912faaaa3a
kirby_0_22,Self Regulation Pilot,1595,,,test,kirby,2016-04-08T17:28:06.852787Z,,,0.0-5.0-17.0,80,35,29,"[80, 81]",,1595,24,1595,<div class = centerbox id='container'><p class = center-block-text>Please select the option that you would prefer pressing <strong>'q'</strong> for left <strong>'p'</strong> for right:</p><div class='table'><div class='row'><div id = 'option'><center><font color='green'>$24<br>today</font></center></div><div id = 'option'><center><font color='green'>$35<br>29 days</font></center></div></div></div></div>,98103,stim,22,poldrack-single-stim,,175c923b-6b6e-4fc1-9e17-4f912faaaa3a
kirby_0_23,Self Regulation Pilot,1746,,,test,kirby,2016-04-08T17:28:06.852787Z,,,0.0-5.0-18.0,80,80,14,"[80, 81]",,1746,33,1746,<div class = centerbox id='container'><p class = center-block-text>Please select the option that you would prefer pressing <strong>'q'</strong> for left <strong>'p'</strong> for right:</p><div class='table'><div class='row'><div id = 'option'><center><font color='green'>$33<br>today</font></center></div><div id = 'option'><center><font color='green'>$80<br>14 days</font></center></div></div></div></div>,100858,stim,23,poldrack-single-stim,,175c923b-6b6e-4fc1-9e17-4f912faaaa3a
kirby_0_24,Self Regulation Pilot,4541,,,test,kirby,2016-04-08T17:28:06.852787Z,,,0.0-5.0-19.0,81,30,179,"[80, 81]",,4541,28,4541,<div class = centerbox id='container'><p class = center-block-text>Please select the option that you would prefer pressing <strong>'q'</strong> for left <strong>'p'</strong> for right:</p><div class='table'><div class='row'><div id = 'option'><center><font color='green'>$28<br>today</font></center></div><div id = 'option'><center><font color='green'>$30<br>179 days</font></center></div></div></div></div>,106407,stim,24,poldrack-single-stim,,175c923b-6b6e-4fc1-9e17-4f912faaaa3a
kirby_0_25,Self Regulation Pilot,1421,,,test,kirby,2016-04-08T17:28:06.852787Z,,,0.0-5.0-20.0,80,50,30,"[80, 81]",,1421,34,1421,<div class = centerbox id='container'><p class = center-block-text>Please select the option that you would prefer pressing <strong>'q'</strong> for left <strong>'p'</strong> for right:</p><div class='table'><div class='row'><div id = 'option'><center><font color='green'>$34<br>today</font></center></div><div id = 'option'><center><font color='green'>$50<br>30 days</font></center></div></div></div></div>,108842,stim,25,poldrack-single-stim,,175c923b-6b6e-4fc1-9e17-4f912faaaa3a
kirby_0_26,Self Regulation Pilot,4409,,,test,kirby,2016-04-08T17:28:06.852787Z,,,0.0-5.0-21.0,80,30,80,"[80, 81]",,4409,25,4409,<div class = centerbox id='container'><p class = center-block-text>Please select the option that you would prefer pressing <strong>'q'</strong> for left <strong>'p'</strong> for right:</p><div class='table'><div class='row'><div id = 'option'><center><font color='green'>$25<br>today</font></center></div><div id = 'option'><center><font color='green'>$30<br>80 days</font></center></div></div></div></div>,114262,stim,26,poldrack-single-stim,,175c923b-6b6e-4fc1-9e17-4f912faaaa3a
kirby_0_27,Self Regulation Pilot,1263,,,test,kirby,2016-04-08T17:28:06.852787Z,,,0.0-5.0-22.0,80,75,20,"[80, 81]",,1263,41,1263,<div class = centerbox id='container'><p class = center-block-text>Please select the option that you would prefer pressing <strong>'q'</strong> for left <strong>'p'</strong> for right:</p><div class='table'><div class='row'><div id = 'option'><center><font color='green'>$41<br>today</font></center></div><div id = 'option'><center><font color='green'>$75<br>20 days</font></center></div></div></div></div>,116537,stim,27,poldrack-single-stim,,175c923b-6b6e-4fc1-9e17-4f912faaaa3a
kirby_0_28,Self Regulation Pilot,3933,,,test,kirby,2016-04-08T17:28:06.852787Z,,,0.0-5.0-23.0,80,60,111,"[80, 81]",,3933,54,3933,<div class = centerbox id='container'><p class = center-block-text>Please select the option that you would prefer pressing <strong>'q'</strong> for left <strong>'p'</strong> for right:</p><div class='table'><div class='row'><div id = 'option'><center><font color='green'>$54<br>today</font></center></div><div id = 'option'><center><font color='green'>$60<br>111 days</font></center></div></div></div></div>,121479,stim,28,poldrack-single-stim,,175c923b-6b6e-4fc1-9e17-4f912faaaa3a
kirby_0_29,Self Regulation Pilot,3799,,,test,kirby,2016-04-08T17:28:06.852787Z,,,0.0-5.0-24.0,80,80,30,"[80, 81]",,3799,54,3799,<div class = centerbox id='container'><p class = center-block-text>Please select the option that you would prefer pressing <strong>'q'</strong> for left <strong>'p'</strong> for right:</p><div class='table'><div class='row'><div id = 'option'><center><font color='green'>$54<br>today</font></center></div><div id = 'option'><center><font color='green'>$80<br>30 days</font></center></div></div></div></div>,126290,stim,29,poldrack-single-stim,,175c923b-6b6e-4fc1-9e17-4f912faaaa3a
kirby_0_30,Self Regulation Pilot,19699,,,test,kirby,2016-04-08T17:28:06.852787Z,,,0.0-5.0-25.0,81,25,136,"[80, 81]",,19699,22,19699,<div class = centerbox id='container'><p class = center-block-text>Please select the option that you would prefer pressing <strong>'q'</strong> for left <strong>'p'</strong> for right:</p><div class='table'><div class='row'><div id = 'option'><center><font color='green'>$22<br>today</font></center></div><div id = 'option'><center><font color='green'>$25<br>136 days</font></center></div></div></div></div>,147010,stim,30,poldrack-single-stim,,175c923b-6b6e-4fc1-9e17-4f912faaaa3a
kirby_0_31,Self Regulation Pilot,1342,,,test,kirby,2016-04-08T17:28:06.852787Z,,,0.0-5.0-26.0,80,55,7,"[80, 81]",,1342,20,1342,<div class = centerbox id='container'><p class = center-block-text>Please select the option that you would prefer pressing <strong>'q'</strong> for left <strong>'p'</strong> for right:</p><div class='table'><div class='row'><div id = 'option'><center><font color='green'>$20<br>today</font></center></div><div id = 'option'><center><font color='green'>$55<br>7 days</font></center></div></div></div></div>,149366,stim,31,poldrack-single-stim,,175c923b-6b6e-4fc1-9e17-4f912faaaa3a
kirby_0_32,Self Regulation Pilot,,,,,kirby,2016-04-08T17:28:06.852787Z,,,0.0-7.0,,,,,"{""Q0"":""Indicate my preference for receiving an amount of money now or a larger amount of money in the future"",""Q1"":""""}",32582,,,,182968,post task questions,32,survey-text,,175c923b-6b6e-4fc1-9e17-4f912faaaa3a
kirby_0_33,Self Regulation Pilot,,,,,kirby,2016-04-08T17:28:06.852787Z,,,0.0-8.0,13,,,,,2177,,,,186162,end,33,poldrack-text,,175c923b-6b6e-4fc1-9e17-4f912faaaa3a
kirby_1_0,Self Regulation Pilot,,,kirby,,kirby,2016-04-13T04:32:05.167503Z,,,0.0-0.0-0.0,13,,,,,7072,,,,7077,instruction,0,poldrack-text,,24cc8fd3-7890-4683-974e-38ed3c645838
kirby_1_1,Self Regulation Pilot,,,kirby,,kirby,2016-04-13T04:32:05.167503Z,,,0.0-0.0-1.0,,,,,,127323,,,,134406,instruction,1,poldrack-instructions,"[{""page_index"":0,""viewing_time"":127322}]",24cc8fd3-7890-4683-974e-38ed3c645838
kirby_1_2,Self Regulation Pilot,,,kirby,,kirby,2016-04-13T04:32:05.167503Z,,,0.0-1.0,13,,,,,3403,,,,138814,practice_intro,2,poldrack-text,,24cc8fd3-7890-4683-974e-38ed3c645838
kirby_1_3,Self Regulation Pilot,4650,,kirby,practice,kirby,2016-04-13T04:32:05.167503Z,,,0.0-2.0,81,,,"[80, 81]",,4650,,4650,<div class = centerbox id='container'><p class = center-block-text>Please select the option that you would prefer pressing <strong>'q'</strong> for left <strong>'p'</strong> for right:</p><div class='table'><div class='row'><div id = 'option'><center><font color='green'>$20<br>today</font></center></div><div id = 'option'><center><font color='green'>$25<br>5 days</font></center></div></div></div></div>,144471,stim,3,poldrack-single-stim,,24cc8fd3-7890-4683-974e-38ed3c645838
kirby_1_4,Self Regulation Pilot,,,kirby,,kirby,2016-04-13T04:32:05.167503Z,,,0.0-4.0,13,,,,,2556,,,,148030,test_intro,4,poldrack-text,,24cc8fd3-7890-4683-974e-38ed3c645838
kirby_1_5,Self Regulation Pilot,3629,smaller_sooner,kirby,test,kirby,2016-04-13T04:32:05.167503Z,,,0.0-5.0-0.0,81,55,117,"[80, 81]",,3629,54,3629,<div class = centerbox id='container'><p class = center-block-text>Please select the option that you would prefer pressing <strong>'q'</strong> for left <strong>'p'</strong> for right:</p><div class='table'><div class='row'><div id = 'option'><center><font color='green'>$54<br>today</font></center></div><div id = 'option'><center><font color='green'>$55<br>117 days</font></center></div></div></div></div>,152662,stim,5,poldrack-single-stim,,24cc8fd3-7890-4683-974e-38ed3c645838
kirby_1_6,Self Regulation Pilot,1269,smaller_sooner,kirby,test,kirby,2016-04-13T04:32:05.167503Z,,,0.0-5.0-1.0,81,75,61,"[80, 81]",,1269,55,1269,<div class = centerbox id='container'><p class = center-block-text>Please select the option that you would prefer pressing <strong>'q'</strong> for left <strong>'p'</strong> for right:</p><div class='table'><div class='row'><div id = 'option'><center><font color='green'>$55<br>today</font></center></div><div id = 'option'><center><font color='green'>$75<br>61 days</font></center></div></div></div></div>,154935,stim,6,poldrack-single-stim,,24cc8fd3-7890-4683-974e-38ed3c645838
kirby_1_7,Self Regulation Pilot,2724,smaller_sooner,kirby,test,kirby,2016-04-13T04:32:05.167503Z,,,0.0-5.0-2.0,81,25,53,"[80, 81]",,2724,19,2724,<div class = centerbox id='container'><p class = center-block-text>Please select the option that you would prefer pressing <strong>'q'</strong> for left <strong>'p'</strong> for right:</p><div class='table'><div class='row'><div id = 'option'><center><font color='green'>$19<br>today</font></center></div><div id = 'option'><center><font color='green'>$25<br>53 days</font></center></div></div></div></div>,158662,stim,7,poldrack-single-stim,,24cc8fd3-7890-4683-974e-38ed3c645838
kirby_1_8,Self Regulation Pilot,5182,larger_later,kirby,test,kirby,2016-04-13T04:32:05.167503Z,,,0.0-5.0-3.0,80,85,7,"[80, 81]",,5182,31,5182,<div class = centerbox id='container'><p class = center-block-text>Please select the option that you would prefer pressing <strong>'q'</strong> for left <strong>'p'</strong> for right:</p><div class='table'><div class='row'><div id = 'option'><center><font color='green'>$31<br>today</font></center></div><div id = 'option'><center><font color='green'>$85<br>7 days</font></center></div></div></div></div>,164847,stim,8,poldrack-single-stim,,24cc8fd3-7890-4683-974e-38ed3c645838
kirby_1_9,Self Regulation Pilot,1292,smaller_sooner,kirby,test,kirby,2016-04-13T04:32:05.167503Z,,,0.0-5.0-4.0,81,25,19,"[80, 81]",,1292,14,1292,<div class = centerbox id='container'><p class = center-block-text>Please select the option that you would prefer pressing <strong>'q'</strong> for left <strong>'p'</strong> for right:</p><div class='table'><div class='row'><div id = 'option'><center><font color='green'>$14<br>today</font></center></div><div id = 'option'><center><font color='green'>$25<br>19 days</font></center></div></div></div></div>,167142,stim,9,poldrack-single-stim,,24cc8fd3-7890-4683-974e-38ed3c645838
kirby_1_10,Self Regulation Pilot,1413,smaller_sooner,kirby,test,kirby,2016-04-13T04:32:05.167503Z,,,0.0-5.0-5.0,81,50,160,"[80, 81]",,1413,47,1413,<div class = centerbox id='container'><p class = center-block-text>Please select the option that you would prefer pressing <strong>'q'</strong> for left <strong>'p'</strong> for right:</p><div class='table'><div class='row'><div id = 'option'><center><font color='green'>$47<br>today</font></center></div><div id = 'option'><center><font color='green'>$50<br>160 days</font></center></div></div></div></div>,169558,stim,10,poldrack-single-stim,,24cc8fd3-7890-4683-974e-38ed3c645838
kirby_1_11,Self Regulation Pilot,1316,smaller_sooner,kirby,test,kirby,2016-04-13T04:32:05.167503Z,,,0.0-5.0-6.0,81,35,13,"[80, 81]",,1316,15,1316,<div class = centerbox id='container'><p class = center-block-text>Please select the option that you would prefer pressing <strong>'q'</strong> for left <strong>'p'</strong> for right:</p><div class='table'><div class='row'><div id = 'option'><center><font color='green'>$15<br>today</font></center></div><div id = 'option'><center><font color='green'>$35<br>13 days</font></center></div></div></div></div>,171878,stim,11,poldrack-single-stim,,24cc8fd3-7890-4683-974e-38ed3c645838
kirby_1_12,Self Regulation Pilot,2564,smaller_sooner,kirby,test,kirby,2016-04-13T04:32:05.167503Z,,,0.0-5.0-7.0,81,60,14,"[80, 81]",,2564,25,2564,<div class = centerbox id='container'><p class = center-block-text>Please select the option that you would prefer pressing <strong>'q'</strong> for left <strong>'p'</strong> for right:</p><div class='table'><div class='row'><div id = 'option'><center><font color='green'>$25<br>today</font></center></div><div id = 'option'><center><font color='green'>$60<br>14 days</font></center></div></div></div></div>,175446,stim,12,poldrack-single-stim,,24cc8fd3-7890-4683-974e-38ed3c645838
kirby_1_13,Self Regulation Pilot,1645,smaller_sooner,kirby,test,kirby,2016-04-13T04:32:05.167503Z,,,0.0-5.0-8.0,81,80,192,"[80, 81]",,1645,78,1645,<div class = centerbox id='container'><p class = center-block-text>Please select the option that you would prefer pressing <strong>'q'</strong> for left <strong>'p'</strong> for right:</p><div class='table'><div class='row'><div id = 'option'><center><font color='green'>$78<br>today</font></center></div><div id = 'option'><center><font color='green'>$80<br>192 days</font></center></div></div></div></div>,178094,stim,13,poldrack-single-stim,,24cc8fd3-7890-4683-974e-38ed3c645838
kirby_1_14,Self Regulation Pilot,1060,smaller_sooner,kirby,test,kirby,2016-04-13T04:32:05.167503Z,,,0.0-5.0-9.0,81,55,62,"[80, 81]",,1060,40,1060,<div class = centerbox id='container'><p class = center-block-text>Please select the option that you would prefer pressing <strong>'q'</strong> for left <strong>'p'</strong> for right:</p><div class='table'><div class='row'><div id = 'option'><center><font color='green'>$40<br>today</font></center></div><div id = 'option'><center><font color='green'>$55<br>62 days</font></center></div></div></div></div>,180158,stim,14,poldrack-single-stim,,24cc8fd3-7890-4683-974e-38ed3c645838
kirby_1_15,Self Regulation Pilot,965,smaller_sooner,kirby,test,kirby,2016-04-13T04:32:05.167503Z,,,0.0-5.0-10.0,81,30,7,"[80, 81]",,965,11,965,<div class = centerbox id='container'><p class = center-block-text>Please select the option that you would prefer pressing <strong>'q'</strong> for left <strong>'p'</strong> for right:</p><div class='table'><div class='row'><div id = 'option'><center><font color='green'>$11<br>today</font></center></div><div id = 'option'><center><font color='green'>$30<br>7 days</font></center></div></div></div></div>,182126,stim,15,poldrack-single-stim,,24cc8fd3-7890-4683-974e-38ed3c645838
kirby_1_16,Self Regulation Pilot,1357,smaller_sooner,kirby,test,kirby,2016-04-13T04:32:05.167503Z,,,0.0-5.0-11.0,81,75,119,"[80, 81]",,1357,67,1357,<div class = centerbox id='container'><p class = center-block-text>Please select the option that you would prefer pressing <strong>'q'</strong> for left <strong>'p'</strong> for right:</p><div class='table'><div class='row'><div id = 'option'><center><font color='green'>$67<br>today</font></center></div><div id = 'option'><center><font color='green'>$75<br>119 days</font></center></div></div></div></div>,184487,stim,16,poldrack-single-stim,,24cc8fd3-7890-4683-974e-38ed3c645838
kirby_1_17,Self Regulation Pilot,861,smaller_sooner,kirby,test,kirby,2016-04-13T04:32:05.167503Z,,,0.0-5.0-12.0,81,35,186,"[80, 81]",,861,34,861,<div class = centerbox id='container'><p class = center-block-text>Please select the option that you would prefer pressing <strong>'q'</strong> for left <strong>'p'</strong> for right:</p><div class='table'><div class='row'><div id = 'option'><center><font color='green'>$34<br>today</font></center></div><div id = 'option'><center><font color='green'>$35<br>186 days</font></center></div></div></div></div>,186350,stim,17,poldrack-single-stim,,24cc8fd3-7890-4683-974e-38ed3c645838
kirby_1_18,Self Regulation Pilot,1157,smaller_sooner,kirby,test,kirby,2016-04-13T04:32:05.167503Z,,,0.0-5.0-13.0,81,50,21,"[80, 81]",,1157,27,1157,<div class = centerbox id='container'><p class = center-block-text>Please select the option that you would prefer pressing <strong>'q'</strong> for left <strong>'p'</strong> for right:</p><div class='table'><div class='row'><div id = 'option'><center><font color='green'>$27<br>today</font></center></div><div id = 'option'><center><font color='green'>$50<br>21 days</font></center></div></div></div></div>,188510,stim,18,poldrack-single-stim,,24cc8fd3-7890-4683-974e-38ed3c645838
kirby_1_19,Self Regulation Pilot,1684,smaller_sooner,kirby,test,kirby,2016-04-13T04:32:05.167503Z,,,0.0-5.0-14.0,81,85,91,"[80, 81]",,1684,69,1684,<div class = centerbox id='container'><p class = center-block-text>Please select the option that you would prefer pressing <strong>'q'</strong> for left <strong>'p'</strong> for right:</p><div class='table'><div class='row'><div id = 'option'><center><font color='green'>$69<br>today</font></center></div><div id = 'option'><center><font color='green'>$85<br>91 days</font></center></div></div></div></div>,191198,stim,19,poldrack-single-stim,,24cc8fd3-7890-4683-974e-38ed3c645838
kirby_1_20,Self Regulation Pilot,949,smaller_sooner,kirby,test,kirby,2016-04-13T04:32:05.167503Z,,,0.0-5.0-15.0,81,60,89,"[80, 81]",,949,49,949,<div class = centerbox id='container'><p class = center-block-text>Please select the option that you would prefer pressing <strong>'q'</strong> for left <strong>'p'</strong> for right:</p><div class='table'><div class='row'><div id = 'option'><center><font color='green'>$49<br>today</font></center></div><div id = 'option'><center><font color='green'>$60<br>89 days</font></center></div></div></div></div>,193150,stim,20,poldrack-single-stim,,24cc8fd3-7890-4683-974e-38ed3c645838
kirby_1_21,Self Regulation Pilot,1601,smaller_sooner,kirby,test,kirby,2016-04-13T04:32:05.167503Z,,,0.0-5.0-16.0,81,85,157,"[80, 81]",,1601,80,1601,<div class = centerbox id='container'><p class = center-block-text>Please select the option that you would prefer pressing <strong>'q'</strong> for left <strong>'p'</strong> for right:</p><div class='table'><div class='row'><div id = 'option'><center><font color='green'>$80<br>today</font></center></div><div id = 'option'><center><font color='green'>$85<br>157 days</font></center></div></div></div></div>,195754,stim,21,poldrack-single-stim,,24cc8fd3-7890-4683-974e-38ed3c645838
kirby_1_22,Self Regulation Pilot,5261,smaller_sooner,kirby,test,kirby,2016-04-13T04:32:05.167503Z,,,0.0-5.0-17.0,81,35,29,"[80, 81]",,5261,24,5261,<div class = centerbox id='container'><p class = center-block-text>Please select the option that you would prefer pressing <strong>'q'</strong> for left <strong>'p'</strong> for right:</p><div class='table'><div class='row'><div id = 'option'><center><font color='green'>$24<br>today</font></center></div><div id = 'option'><center><font color='green'>$35<br>29 days</font></center></div></div></div></div>,202018,stim,22,poldrack-single-stim,,24cc8fd3-7890-4683-974e-38ed3c645838
kirby_1_23,Self Regulation Pilot,2620,larger_later,kirby,test,kirby,2016-04-13T04:32:05.167503Z,,,0.0-5.0-18.0,80,80,14,"[80, 81]",,2620,33,2620,<div class = centerbox id='container'><p class = center-block-text>Please select the option that you would prefer pressing <strong>'q'</strong> for left <strong>'p'</strong> for right:</p><div class='table'><div class='row'><div id = 'option'><center><font color='green'>$33<br>today</font></center></div><div id = 'option'><center><font color='green'>$80<br>14 days</font></center></div></div></div></div>,205642,stim,23,poldrack-single-stim,,24cc8fd3-7890-4683-974e-38ed3c645838
kirby_1_24,Self Regulation Pilot,1645,smaller_sooner,kirby,test,kirby,2016-04-13T04:32:05.167503Z,,,0.0-5.0-19.0,81,30,179,"[80, 81]",,1645,28,1645,<div class = centerbox id='container'><p class = center-block-text>Please select the option that you would prefer pressing <strong>'q'</strong> for left <strong>'p'</strong> for right:</p><div class='table'><div class='row'><div id = 'option'><center><font color='green'>$28<br>today</font></center></div><div id = 'option'><center><font color='green'>$30<br>179 days</font></center></div></div></div></div>,208291,stim,24,poldrack-single-stim,,24cc8fd3-7890-4683-974e-38ed3c645838
kirby_1_25,Self Regulation Pilot,1028,smaller_sooner,kirby,test,kirby,2016-04-13T04:32:05.167503Z,,,0.0-5.0-20.0,81,50,30,"[80, 81]",,1028,34,1028,<div class = centerbox id='container'><p class = center-block-text>Please select the option that you would prefer pressing <strong>'q'</strong> for left <strong>'p'</strong> for right:</p><div class='table'><div class='row'><div id = 'option'><center><font color='green'>$34<br>today</font></center></div><div id = 'option'><center><font color='green'>$50<br>30 days</font></center></div></div></div></div>,210322,stim,25,poldrack-single-stim,,24cc8fd3-7890-4683-974e-38ed3c645838
kirby_1_26,Self Regulation Pilot,837,smaller_sooner,kirby,test,kirby,2016-04-13T04:32:05.167503Z,,,0.0-5.0-21.0,81,30,80,"[80, 81]",,837,25,837,<div class = centerbox id='container'><p class = center-block-text>Please select the option that you would prefer pressing <strong>'q'</strong> for left <strong>'p'</strong> for right:</p><div class='table'><div class='row'><div id = 'option'><center><font color='green'>$25<br>today</font></center></div><div id = 'option'><center><font color='green'>$30<br>80 days</font></center></div></div></div></div>,212162,stim,26,poldrack-single-stim,,24cc8fd3-7890-4683-974e-38ed3c645838
kirby_1_27,Self Regulation Pilot,1269,smaller_sooner,kirby,test,kirby,2016-04-13T04:32:05.167503Z,,,0.0-5.0-22.0,81,75,20,"[80, 81]",,1269,41,1269,<div class = centerbox id='container'><p class = center-block-text>Please select the option that you would prefer pressing <strong>'q'</strong> for left <strong>'p'</strong> for right:</p><div class='table'><div class='row'><div id = 'option'><center><font color='green'>$41<br>today</font></center></div><div id = 'option'><center><font color='green'>$75<br>20 days</font></center></div></div></div></div>,214433,stim,27,poldrack-single-stim,,24cc8fd3-7890-4683-974e-38ed3c645838
kirby_1_28,Self Regulation Pilot,1492,smaller_sooner,kirby,test,kirby,2016-04-13T04:32:05.167503Z,,,0.0-5.0-23.0,81,60,111,"[80, 81]",,1492,54,1492,<div class = centerbox id='container'><p class = center-block-text>Please select the option that you would prefer pressing <strong>'q'</strong> for left <strong>'p'</strong> for right:</p><div class='table'><div class='row'><div id = 'option'><center><font color='green'>$54<br>today</font></center></div><div id = 'option'><center><font color='green'>$60<br>111 days</font></center></div></div></div></div>,216929,stim,28,poldrack-single-stim,,24cc8fd3-7890-4683-974e-38ed3c645838
kirby_1_29,Self Regulation Pilot,1452,smaller_sooner,kirby,test,kirby,2016-04-13T04:32:05.167503Z,,,0.0-5.0-24.0,81,80,30,"[80, 81]",,1452,54,1452,<div class = centerbox id='container'><p class = center-block-text>Please select the option that you would prefer pressing <strong>'q'</strong> for left <strong>'p'</strong> for right:</p><div class='table'><div class='row'><div id = 'option'><center><font color='green'>$54<br>today</font></center></div><div id = 'option'><center><font color='green'>$80<br>30 days</font></center></div></div></div></div>,219386,stim,29,poldrack-single-stim,,24cc8fd3-7890-4683-974e-38ed3c645838
kirby_1_30,Self Regulation Pilot,996,smaller_sooner,kirby,test,kirby,2016-04-13T04:32:05.167503Z,,,0.0-5.0-25.0,81,25,136,"[80, 81]",,996,22,996,<div class = centerbox id='container'><p class = center-block-text>Please select the option that you would prefer pressing <strong>'q'</strong> for left <strong>'p'</strong> for right:</p><div class='table'><div class='row'><div id = 'option'><center><font color='green'>$22<br>today</font></center></div><div id = 'option'><center><font color='green'>$25<br>136 days</font></center></div></div></div></div>,221386,stim,30,poldrack-single-stim,,24cc8fd3-7890-4683-974e-38ed3c645838
kirby_1_31,Self Regulation Pilot,556,smaller_sooner,kirby,test,kirby,2016-04-13T04:32:05.167503Z,,,0.0-5.0-26.0,81,55,7,"[80, 81]",,556,20,556,<div class = centerbox id='container'><p class = center-block-text>Please select the option that you would prefer pressing <strong>'q'</strong> for left <strong>'p'</strong> for right:</p><div class='table'><div class='row'><div id = 'option'><center><font color='green'>$20<br>today</font></center></div><div id = 'option'><center><font color='green'>$55<br>7 days</font></center></div></div></div></div>,222946,stim,31,poldrack-single-stim,,24cc8fd3-7890-4683-974e-38ed3c645838
kirby_1_32,Self Regulation Pilot,,,kirby,,kirby,2016-04-13T04:32:05.167503Z,,,0.0-7.0,,,,,"{""Q0"":""pick money that i want now or later"",""Q1"":""nice""}",15375,,,,239329,post task questions,32,survey-text,,24cc8fd3-7890-4683-974e-38ed3c645838
kirby_1_33,Self Regulation Pilot,,,kirby,,kirby,2016-04-13T04:32:05.167503Z,,,0.0-8.0,13,,,,,990,,,,241321,end,33,poldrack-text,,24cc8fd3-7890-4683-974e-38ed3c645838
kirby_2_0,Self Regulation Pilot,,,kirby,,kirby,2016-04-18T08:23:53.277589Z,0,TRUE,0.0-0.0-0.0,13,,,,,2440,,,,2443,instruction,0,poldrack-text,,A07375212LC8D25XBGZ1J
kirby_2_1,Self Regulation Pilot,,,kirby,,kirby,2016-04-18T08:23:53.277589Z,0,TRUE,0.0-0.0-1.0,,,,,,24776,,,,27223,instruction,1,poldrack-instructions,"[{""page_index"":0,""viewing_time"":24775}]",A07375212LC8D25XBGZ1J
kirby_2_2,Self Regulation Pilot,,,kirby,,kirby,2016-04-18T08:23:53.277589Z,0,TRUE,0.0-1.0,13,,,,,3702,,,,31930,practice_intro,2,poldrack-text,,A07375212LC8D25XBGZ1J
kirby_2_3,Self Regulation Pilot,2924,,kirby,practice,kirby,2016-04-18T08:23:53.277589Z,0,TRUE,0.0-2.0,80,,,"[80, 81]",,2924,,2924,<div class = centerbox id='container'><p class = center-block-text>Please select the option that you would prefer pressing <strong>'q'</strong> for left <strong>'p'</strong> for right:</p><div class='table'><div class='row'><div id = 'option'><center><font color='green'>$20<br>today</font></center></div><div id = 'option'><center><font color='green'>$25<br>5 days</font></center></div></div></div></div>,35858,stim,3,poldrack-single-stim,,A07375212LC8D25XBGZ1J
kirby_2_4,Self Regulation Pilot,,,kirby,,kirby,2016-04-18T08:23:53.277589Z,0,TRUE,0.0-4.0,13,,,,,2262,,,,39121,test_intro,4,poldrack-text,,A07375212LC8D25XBGZ1J
kirby_2_5,Self Regulation Pilot,1870,smaller_sooner,kirby,test,kirby,2016-04-18T08:23:53.277589Z,0,TRUE,0.0-5.0-0.0,81,55,117,"[80, 81]",,1870,54,1870,<div class = centerbox id='container'><p class = center-block-text>Please select the option that you would prefer pressing <strong>'q'</strong> for left <strong>'p'</strong> for right:</p><div class='table'><div class='row'><div id = 'option'><center><font color='green'>$54<br>today</font></center></div><div id = 'option'><center><font color='green'>$55<br>117 days</font></center></div></div></div></div>,41993,stim,5,poldrack-single-stim,,A07375212LC8D25XBGZ1J
kirby_2_6,Self Regulation Pilot,941,larger_later,kirby,test,kirby,2016-04-18T08:23:53.277589Z,0,TRUE,0.0-5.0-1.0,80,75,61,"[80, 81]",,941,55,941,<div class = centerbox id='container'><p class = center-block-text>Please select the option that you would prefer pressing <strong>'q'</strong> for left <strong>'p'</strong> for right:</p><div class='table'><div class='row'><div id = 'option'><center><font color='green'>$55<br>today</font></center></div><div id = 'option'><center><font color='green'>$75<br>61 days</font></center></div></div></div></div>,43937,stim,6,poldrack-single-stim,,A07375212LC8D25XBGZ1J
kirby_2_7,Self Regulation Pilot,1710,smaller_sooner,kirby,test,kirby,2016-04-18T08:23:53.277589Z,0,TRUE,0.0-5.0-2.0,81,25,53,"[80, 81]",,1710,19,1710,<div class = centerbox id='container'><p class = center-block-text>Please select the option that you would prefer pressing <strong>'q'</strong> for left <strong>'p'</strong> for right:</p><div class='table'><div class='row'><div id = 'option'><center><font color='green'>$19<br>today</font></center></div><div id = 'option'><center><font color='green'>$25<br>53 days</font></center></div></div></div></div>,46649,stim,7,poldrack-single-stim,,A07375212LC8D25XBGZ1J
kirby_2_8,Self Regulation Pilot,1015,larger_later,kirby,test,kirby,2016-04-18T08:23:53.277589Z,0,TRUE,0.0-5.0-3.0,80,85,7,"[80, 81]",,1015,31,1015,<div class = centerbox id='container'><p class = center-block-text>Please select the option that you would prefer pressing <strong>'q'</strong> for left <strong>'p'</strong> for right:</p><div class='table'><div class='row'><div id = 'option'><center><font color='green'>$31<br>today</font></center></div><div id = 'option'><center><font color='green'>$85<br>7 days</font></center></div></div></div></div>,48666,stim,8,poldrack-single-stim,,A07375212LC8D25XBGZ1J
kirby_2_9,Self Regulation Pilot,1550,larger_later,kirby,test,kirby,2016-04-18T08:23:53.277589Z,0,TRUE,0.0-5.0-4.0,80,25,19,"[80, 81]",,1550,14,1550,<div class = centerbox id='container'><p class = center-block-text>Please select the option that you would prefer pressing <strong>'q'</strong> for left <strong>'p'</strong> for right:</p><div class='table'><div class='row'><div id = 'option'><center><font color='green'>$14<br>today</font></center></div><div id = 'option'><center><font color='green'>$25<br>19 days</font></center></div></div></div></div>,51218,stim,9,poldrack-single-stim,,A07375212LC8D25XBGZ1J
kirby_2_10,Self Regulation Pilot,1214,smaller_sooner,kirby,test,kirby,2016-04-18T08:23:53.277589Z,0,TRUE,0.0-5.0-5.0,81,50,160,"[80, 81]",,1214,47,1214,<div class = centerbox id='container'><p class = center-block-text>Please select the option that you would prefer pressing <strong>'q'</strong> for left <strong>'p'</strong> for right:</p><div class='table'><div class='row'><div id = 'option'><center><font color='green'>$47<br>today</font></center></div><div id = 'option'><center><font color='green'>$50<br>160 days</font></center></div></div></div></div>,53434,stim,10,poldrack-single-stim,,A07375212LC8D25XBGZ1J
kirby_2_11,Self Regulation Pilot,1046,larger_later,kirby,test,kirby,2016-04-18T08:23:53.277589Z,0,TRUE,0.0-5.0-6.0,80,35,13,"[80, 81]",,1046,15,1046,<div class = centerbox id='container'><p class = center-block-text>Please select the option that you would prefer pressing <strong>'q'</strong> for left <strong>'p'</strong> for right:</p><div class='table'><div class='row'><div id = 'option'><center><font color='green'>$15<br>today</font></center></div><div id = 'option'><center><font color='green'>$35<br>13 days</font></center></div></div></div></div>,55481,stim,11,poldrack-single-stim,,A07375212LC8D25XBGZ1J
kirby_2_12,Self Regulation Pilot,1342,larger_later,kirby,test,kirby,2016-04-18T08:23:53.277589Z,0,TRUE,0.0-5.0-7.0,80,60,14,"[80, 81]",,1342,25,1342,<div class = centerbox id='container'><p class = center-block-text>Please select the option that you would prefer pressing <strong>'q'</strong> for left <strong>'p'</strong> for right:</p><div class='table'><div class='row'><div id = 'option'><center><font color='green'>$25<br>today</font></center></div><div id = 'option'><center><font color='green'>$60<br>14 days</font></center></div></div></div></div>,57825,stim,12,poldrack-single-stim,,A07375212LC8D25XBGZ1J
kirby_2_13,Self Regulation Pilot,1461,smaller_sooner,kirby,test,kirby,2016-04-18T08:23:53.277589Z,0,TRUE,0.0-5.0-8.0,81,80,192,"[80, 81]",,1461,78,1461,<div class = centerbox id='container'><p class = center-block-text>Please select the option that you would prefer pressing <strong>'q'</strong> for left <strong>'p'</strong> for right:</p><div class='table'><div class='row'><div id = 'option'><center><font color='green'>$78<br>today</font></center></div><div id = 'option'><center><font color='green'>$80<br>192 days</font></center></div></div></div></div>,60289,stim,13,poldrack-single-stim,,A07375212LC8D25XBGZ1J
kirby_2_14,Self Regulation Pilot,1758,smaller_sooner,kirby,test,kirby,2016-04-18T08:23:53.277589Z,0,TRUE,0.0-5.0-9.0,81,55,62,"[80, 81]",,1758,40,1758,<div class = centerbox id='container'><p class = center-block-text>Please select the option that you would prefer pressing <strong>'q'</strong> for left <strong>'p'</strong> for right:</p><div class='table'><div class='row'><div id = 'option'><center><font color='green'>$40<br>today</font></center></div><div id = 'option'><center><font color='green'>$55<br>62 days</font></center></div></div></div></div>,63049,stim,14,poldrack-single-stim,,A07375212LC8D25XBGZ1J
kirby_2_15,Self Regulation Pilot,1134,larger_later,kirby,test,kirby,2016-04-18T08:23:53.277589Z,0,TRUE,0.0-5.0-10.0,80,30,7,"[80, 81]",,1134,11,1134,<div class = centerbox id='container'><p class = center-block-text>Please select the option that you would prefer pressing <strong>'q'</strong> for left <strong>'p'</strong> for right:</p><div class='table'><div class='row'><div id = 'option'><center><font color='green'>$11<br>today</font></center></div><div id = 'option'><center><font color='green'>$30<br>7 days</font></center></div></div></div></div>,65185,stim,15,poldrack-single-stim,,A07375212LC8D25XBGZ1J
kirby_2_16,Self Regulation Pilot,1518,smaller_sooner,kirby,test,kirby,2016-04-18T08:23:53.277589Z,0,TRUE,0.0-5.0-11.0,81,75,119,"[80, 81]",,1518,67,1518,<div class = centerbox id='container'><p class = center-block-text>Please select the option that you would prefer pressing <strong>'q'</strong> for left <strong>'p'</strong> for right:</p><div class='table'><div class='row'><div id = 'option'><center><font color='green'>$67<br>today</font></center></div><div id = 'option'><center><font color='green'>$75<br>119 days</font></center></div></div></div></div>,67706,stim,16,poldrack-single-stim,,A07375212LC8D25XBGZ1J
kirby_2_17,Self Regulation Pilot,1118,smaller_sooner,kirby,test,kirby,2016-04-18T08:23:53.277589Z,0,TRUE,0.0-5.0-12.0,81,35,186,"[80, 81]",,1118,34,1118,<div class = centerbox id='container'><p class = center-block-text>Please select the option that you would prefer pressing <strong>'q'</strong> for left <strong>'p'</strong> for right:</p><div class='table'><div class='row'><div id = 'option'><center><font color='green'>$34<br>today</font></center></div><div id = 'option'><center><font color='green'>$35<br>186 days</font></center></div></div></div></div>,69825,stim,17,poldrack-single-stim,,A07375212LC8D25XBGZ1J
kirby_2_18,Self Regulation Pilot,1108,larger_later,kirby,test,kirby,2016-04-18T08:23:53.277589Z,0,TRUE,0.0-5.0-13.0,80,50,21,"[80, 81]",,1108,27,1108,<div class = centerbox id='container'><p class = center-block-text>Please select the option that you would prefer pressing <strong>'q'</strong> for left <strong>'p'</strong> for right:</p><div class='table'><div class='row'><div id = 'option'><center><font color='green'>$27<br>today</font></center></div><div id = 'option'><center><font color='green'>$50<br>21 days</font></center></div></div></div></div>,71938,stim,18,poldrack-single-stim,,A07375212LC8D25XBGZ1J
kirby_2_19,Self Regulation Pilot,1454,smaller_sooner,kirby,test,kirby,2016-04-18T08:23:53.277589Z,0,TRUE,0.0-5.0-14.0,81,85,91,"[80, 81]",,1454,69,1454,<div class = centerbox id='container'><p class = center-block-text>Please select the option that you would prefer pressing <strong>'q'</strong> for left <strong>'p'</strong> for right:</p><div class='table'><div class='row'><div id = 'option'><center><font color='green'>$69<br>today</font></center></div><div id = 'option'><center><font color='green'>$85<br>91 days</font></center></div></div></div></div>,74393,stim,19,poldrack-single-stim,,A07375212LC8D25XBGZ1J
kirby_2_20,Self Regulation Pilot,2126,smaller_sooner,kirby,test,kirby,2016-04-18T08:23:53.277589Z,0,TRUE,0.0-5.0-15.0,81,60,89,"[80, 81]",,2126,49,2126,<div class = centerbox id='container'><p class = center-block-text>Please select the option that you would prefer pressing <strong>'q'</strong> for left <strong>'p'</strong> for right:</p><div class='table'><div class='row'><div id = 'option'><center><font color='green'>$49<br>today</font></center></div><div id = 'option'><center><font color='green'>$60<br>89 days</font></center></div></div></div></div>,77521,stim,20,poldrack-single-stim,,A07375212LC8D25XBGZ1J
kirby_2_21,Self Regulation Pilot,1334,smaller_sooner,kirby,test,kirby,2016-04-18T08:23:53.277589Z,0,TRUE,0.0-5.0-16.0,81,85,157,"[80, 81]",,1334,80,1334,<div class = centerbox id='container'><p class = center-block-text>Please select the option that you would prefer pressing <strong>'q'</strong> for left <strong>'p'</strong> for right:</p><div class='table'><div class='row'><div id = 'option'><center><font color='green'>$80<br>today</font></center></div><div id = 'option'><center><font color='green'>$85<br>157 days</font></center></div></div></div></div>,79857,stim,21,poldrack-single-stim,,A07375212LC8D25XBGZ1J
kirby_2_22,Self Regulation Pilot,1590,larger_later,kirby,test,kirby,2016-04-18T08:23:53.277589Z,0,TRUE,0.0-5.0-17.0,80,35,29,"[80, 81]",,1590,24,1590,<div class = centerbox id='container'><p class = center-block-text>Please select the option that you would prefer pressing <strong>'q'</strong> for left <strong>'p'</strong> for right:</p><div class='table'><div class='row'><div id = 'option'><center><font color='green'>$24<br>today</font></center></div><div id = 'option'><center><font color='green'>$35<br>29 days</font></center></div></div></div></div>,82449,stim,22,poldrack-single-stim,,A07375212LC8D25XBGZ1J
kirby_2_23,Self Regulation Pilot,1342,larger_later,kirby,test,kirby,2016-04-18T08:23:53.277589Z,0,TRUE,0.0-5.0-18.0,80,80,14,"[80, 81]",,1342,33,1342,<div class = centerbox id='container'><p class = center-block-text>Please select the option that you would prefer pressing <strong>'q'</strong> for left <strong>'p'</strong> for right:</p><div class='table'><div class='row'><div id = 'option'><center><font color='green'>$33<br>today</font></center></div><div id = 'option'><center><font color='green'>$80<br>14 days</font></center></div></div></div></div>,84794,stim,23,poldrack-single-stim,,A07375212LC8D25XBGZ1J
kirby_2_24,Self Regulation Pilot,1214,smaller_sooner,kirby,test,kirby,2016-04-18T08:23:53.277589Z,0,TRUE,0.0-5.0-19.0,81,30,179,"[80, 81]",,1214,28,1214,<div class = centerbox id='container'><p class = center-block-text>Please select the option that you would prefer pressing <strong>'q'</strong> for left <strong>'p'</strong> for right:</p><div class='table'><div class='row'><div id = 'option'><center><font color='green'>$28<br>today</font></center></div><div id = 'option'><center><font color='green'>$30<br>179 days</font></center></div></div></div></div>,87009,stim,24,poldrack-single-stim,,A07375212LC8D25XBGZ1J
kirby_2_25,Self Regulation Pilot,1311,larger_later,kirby,test,kirby,2016-04-18T08:23:53.277589Z,0,TRUE,0.0-5.0-20.0,80,50,30,"[80, 81]",,1311,34,1311,<div class = centerbox id='container'><p class = center-block-text>Please select the option that you would prefer pressing <strong>'q'</strong> for left <strong>'p'</strong> for right:</p><div class='table'><div class='row'><div id = 'option'><center><font color='green'>$34<br>today</font></center></div><div id = 'option'><center><font color='green'>$50<br>30 days</font></center></div></div></div></div>,89321,stim,25,poldrack-single-stim,,A07375212LC8D25XBGZ1J
kirby_2_26,Self Regulation Pilot,1231,smaller_sooner,kirby,test,kirby,2016-04-18T08:23:53.277589Z,0,TRUE,0.0-5.0-21.0,81,30,80,"[80, 81]",,1231,25,1231,<div class = centerbox id='container'><p class = center-block-text>Please select the option that you would prefer pressing <strong>'q'</strong> for left <strong>'p'</strong> for right:</p><div class='table'><div class='row'><div id = 'option'><center><font color='green'>$25<br>today</font></center></div><div id = 'option'><center><font color='green'>$30<br>80 days</font></center></div></div></div></div>,91553,stim,26,poldrack-single-stim,,A07375212LC8D25XBGZ1J
kirby_2_27,Self Regulation Pilot,1215,larger_later,kirby,test,kirby,2016-04-18T08:23:53.277589Z,0,TRUE,0.0-5.0-22.0,80,75,20,"[80, 81]",,1215,41,1215,<div class = centerbox id='container'><p class = center-block-text>Please select the option that you would prefer pressing <strong>'q'</strong> for left <strong>'p'</strong> for right:</p><div class='table'><div class='row'><div id = 'option'><center><font color='green'>$41<br>today</font></center></div><div id = 'option'><center><font color='green'>$75<br>20 days</font></center></div></div></div></div>,93769,stim,27,poldrack-single-stim,,A07375212LC8D25XBGZ1J
kirby_2_28,Self Regulation Pilot,1102,smaller_sooner,kirby,test,kirby,2016-04-18T08:23:53.277589Z,0,TRUE,0.0-5.0-23.0,81,60,111,"[80, 81]",,1102,54,1102,<div class = centerbox id='container'><p class = center-block-text>Please select the option that you would prefer pressing <strong>'q'</strong> for left <strong>'p'</strong> for right:</p><div class='table'><div class='row'><div id = 'option'><center><font color='green'>$54<br>today</font></center></div><div id = 'option'><center><font color='green'>$60<br>111 days</font></center></div></div></div></div>,95873,stim,28,poldrack-single-stim,,A07375212LC8D25XBGZ1J
kirby_2_29,Self Regulation Pilot,1198,larger_later,kirby,test,kirby,2016-04-18T08:23:53.277589Z,0,TRUE,0.0-5.0-24.0,80,80,30,"[80, 81]",,1198,54,1198,<div class = centerbox id='container'><p class = center-block-text>Please select the option that you would prefer pressing <strong>'q'</strong> for left <strong>'p'</strong> for right:</p><div class='table'><div class='row'><div id = 'option'><center><font color='green'>$54<br>today</font></center></div><div id = 'option'><center><font color='green'>$80<br>30 days</font></center></div></div></div></div>,98073,stim,29,poldrack-single-stim,,A07375212LC8D25XBGZ1J
kirby_2_30,Self Regulation Pilot,966,smaller_sooner,kirby,test,kirby,2016-04-18T08:23:53.277589Z,0,TRUE,0.0-5.0-25.0,81,25,136,"[80, 81]",,966,22,966,<div class = centerbox id='container'><p class = center-block-text>Please select the option that you would prefer pressing <strong>'q'</strong> for left <strong>'p'</strong> for right:</p><div class='table'><div class='row'><div id = 'option'><center><font color='green'>$22<br>today</font></center></div><div id = 'option'><center><font color='green'>$25<br>136 days</font></center></div></div></div></div>,100041,stim,30,poldrack-single-stim,,A07375212LC8D25XBGZ1J
kirby_2_31,Self Regulation Pilot,1198,larger_later,kirby,test,kirby,2016-04-18T08:23:53.277589Z,0,TRUE,0.0-5.0-26.0,80,55,7,"[80, 81]",,1198,20,1198,<div class = centerbox id='container'><p class = center-block-text>Please select the option that you would prefer pressing <strong>'q'</strong> for left <strong>'p'</strong> for right:</p><div class='table'><div class='row'><div id = 'option'><center><font color='green'>$20<br>today</font></center></div><div id = 'option'><center><font color='green'>$55<br>7 days</font></center></div></div></div></div>,102242,stim,31,poldrack-single-stim,,A07375212LC8D25XBGZ1J
kirby_2_32,Self Regulation Pilot,,,kirby,,kirby,2016-04-18T08:23:53.277589Z,0,TRUE,0.0-7.0,,,,,"{""Q0"":""choose which amount and timeframe provided i would rather received p for right and q for left"",""Q1"":""""}",33873,,,,137120,post task questions,32,survey-text,,A07375212LC8D25XBGZ1J
kirby_2_33,Self Regulation Pilot,,,kirby,,kirby,2016-04-18T08:23:53.277589Z,0,TRUE,0.0-8.0,13,,,,,1855,,,,139977,end,33,poldrack-text,,A07375212LC8D25XBGZ1J
kirby_3_0,Self Regulation Pilot,,,,,kirby,2016-04-11T01:43:54.957587Z,,,0.0-0.0-0.0,13,,,,,1720,,,,1722,instruction,0,poldrack-text,,A110KENBXU7SUJ
kirby_3_1,Self Regulation Pilot,,,,,kirby,2016-04-11T01:43:54.957587Z,,,0.0-0.0-1.0,,,,,,10978,,,,12702,instruction,1,poldrack-instructions,"[{""page_index"":0,""viewing_time"":10977}]",A110KENBXU7SUJ
kirby_3_2,Self Regulation Pilot,,,,,kirby,2016-04-11T01:43:54.957587Z,,,0.0-1.0,13,,,,,2050,,,,15754,practice_intro,2,poldrack-text,,A110KENBXU7SUJ
kirby_3_3,Self Regulation Pilot,1979,,,practice,kirby,2016-04-11T01:43:54.957587Z,,,0.0-2.0,80,,,"[80, 81]",,1979,,1979,<div class = centerbox id='container'><p class = center-block-text>Please select the option that you would prefer pressing <strong>'q'</strong> for left <strong>'p'</strong> for right:</p><div class='table'><div class='row'><div id = 'option'><center><font color='green'>$20<br>today</font></center></div><div id = 'option'><center><font color='green'>$25<br>5 days</font></center></div></div></div></div>,18737,stim,3,poldrack-single-stim,,A110KENBXU7SUJ
kirby_3_4,Self Regulation Pilot,,,,,kirby,2016-04-11T01:43:54.957587Z,,,0.0-4.0,13,,,,,1772,,,,21512,test_intro,4,poldrack-text,,A110KENBXU7SUJ
kirby_3_5,Self Regulation Pilot,1188,,,test,kirby,2016-04-11T01:43:54.957587Z,,,0.0-5.0-0.0,81,55,117,"[80, 81]",,1188,54,1188,<div class = centerbox id='container'><p class = center-block-text>Please select the option that you would prefer pressing <strong>'q'</strong> for left <strong>'p'</strong> for right:</p><div class='table'><div class='row'><div id = 'option'><center><font color='green'>$54<br>today</font></center></div><div id = 'option'><center><font color='green'>$55<br>117 days</font></center></div></div></div></div>,23702,stim,5,poldrack-single-stim,,A110KENBXU7SUJ
kirby_3_6,Self Regulation Pilot,1185,,,test,kirby,2016-04-11T01:43:54.957587Z,,,0.0-5.0-1.0,81,75,61,"[80, 81]",,1185,55,1185,<div class = centerbox id='container'><p class = center-block-text>Please select the option that you would prefer pressing <strong>'q'</strong> for left <strong>'p'</strong> for right:</p><div class='table'><div class='row'><div id = 'option'><center><font color='green'>$55<br>today</font></center></div><div id = 'option'><center><font color='green'>$75<br>61 days</font></center></div></div></div></div>,25889,stim,6,poldrack-single-stim,,A110KENBXU7SUJ
kirby_3_7,Self Regulation Pilot,1217,,,test,kirby,2016-04-11T01:43:54.957587Z,,,0.0-5.0-2.0,81,25,53,"[80, 81]",,1217,19,1217,<div class = centerbox id='container'><p class = center-block-text>Please select the option that you would prefer pressing <strong>'q'</strong> for left <strong>'p'</strong> for right:</p><div class='table'><div class='row'><div id = 'option'><center><font color='green'>$19<br>today</font></center></div><div id = 'option'><center><font color='green'>$25<br>53 days</font></center></div></div></div></div>,28108,stim,7,poldrack-single-stim,,A110KENBXU7SUJ
kirby_3_8,Self Regulation Pilot,943,,,test,kirby,2016-04-11T01:43:54.957587Z,,,0.0-5.0-3.0,80,85,7,"[80, 81]",,943,31,943,<div class = centerbox id='container'><p class = center-block-text>Please select the option that you would prefer pressing <strong>'q'</strong> for left <strong>'p'</strong> for right:</p><div class='table'><div class='row'><div id = 'option'><center><font color='green'>$31<br>today</font></center></div><div id = 'option'><center><font color='green'>$85<br>7 days</font></center></div></div></div></div>,30054,stim,8,poldrack-single-stim,,A110KENBXU7SUJ
kirby_3_9,Self Regulation Pilot,1028,,,test,kirby,2016-04-11T01:43:54.957587Z,,,0.0-5.0-4.0,81,25,19,"[80, 81]",,1028,14,1028,<div class = centerbox id='container'><p class = center-block-text>Please select the option that you would prefer pressing <strong>'q'</strong> for left <strong>'p'</strong> for right:</p><div class='table'><div class='row'><div id = 'option'><center><font color='green'>$14<br>today</font></center></div><div id = 'option'><center><font color='green'>$25<br>19 days</font></center></div></div></div></div>,32084,stim,9,poldrack-single-stim,,A110KENBXU7SUJ
kirby_3_10,Self Regulation Pilot,1023,,,test,kirby,2016-04-11T01:43:54.957587Z,,,0.0-5.0-5.0,81,50,160,"[80, 81]",,1023,47,1023,<div class = centerbox id='container'><p class = center-block-text>Please select the option that you would prefer pressing <strong>'q'</strong> for left <strong>'p'</strong> for right:</p><div class='table'><div class='row'><div id = 'option'><center><font color='green'>$47<br>today</font></center></div><div id = 'option'><center><font color='green'>$50<br>160 days</font></center></div></div></div></div>,34110,stim,10,poldrack-single-stim,,A110KENBXU7SUJ
kirby_3_11,Self Regulation Pilot,1348,,,test,kirby,2016-04-11T01:43:54.957587Z,,,0.0-5.0-6.0,80,35,13,"[80, 81]",,1348,15,1348,<div class = centerbox id='container'><p class = center-block-text>Please select the option that you would prefer pressing <strong>'q'</strong> for left <strong>'p'</strong> for right:</p><div class='table'><div class='row'><div id = 'option'><center><font color='green'>$15<br>today</font></center></div><div id = 'option'><center><font color='green'>$35<br>13 days</font></center></div></div></div></div>,36460,stim,11,poldrack-single-stim,,A110KENBXU7SUJ
kirby_3_12,Self Regulation Pilot,1024,,,test,kirby,2016-04-11T01:43:54.957587Z,,,0.0-5.0-7.0,80,60,14,"[80, 81]",,1024,25,1024,<div class = centerbox id='container'><p class = center-block-text>Please select the option that you would prefer pressing <strong>'q'</strong> for left <strong>'p'</strong> for right:</p><div class='table'><div class='row'><div id = 'option'><center><font color='green'>$25<br>today</font></center></div><div id = 'option'><center><font color='green'>$60<br>14 days</font></center></div></div></div></div>,38486,stim,12,poldrack-single-stim,,A110KENBXU7SUJ
kirby_3_13,Self Regulation Pilot,886,,,test,kirby,2016-04-11T01:43:54.957587Z,,,0.0-5.0-8.0,81,80,192,"[80, 81]",,886,78,886,<div class = centerbox id='container'><p class = center-block-text>Please select the option that you would prefer pressing <strong>'q'</strong> for left <strong>'p'</strong> for right:</p><div class='table'><div class='row'><div id = 'option'><center><font color='green'>$78<br>today</font></center></div><div id = 'option'><center><font color='green'>$80<br>192 days</font></center></div></div></div></div>,40374,stim,13,poldrack-single-stim,,A110KENBXU7SUJ
kirby_3_14,Self Regulation Pilot,1082,,,test,kirby,2016-04-11T01:43:54.957587Z,,,0.0-5.0-9.0,81,55,62,"[80, 81]",,1082,40,1082,<div class = centerbox id='container'><p class = center-block-text>Please select the option that you would prefer pressing <strong>'q'</strong> for left <strong>'p'</strong> for right:</p><div class='table'><div class='row'><div id = 'option'><center><font color='green'>$40<br>today</font></center></div><div id = 'option'><center><font color='green'>$55<br>62 days</font></center></div></div></div></div>,42458,stim,14,poldrack-single-stim,,A110KENBXU7SUJ
kirby_3_15,Self Regulation Pilot,1466,,,test,kirby,2016-04-11T01:43:54.957587Z,,,0.0-5.0-10.0,80,30,7,"[80, 81]",,1466,11,1466,<div class = centerbox id='container'><p class = center-block-text>Please select the option that you would prefer pressing <strong>'q'</strong> for left <strong>'p'</strong> for right:</p><div class='table'><div class='row'><div id = 'option'><center><font color='green'>$11<br>today</font></center></div><div id = 'option'><center><font color='green'>$30<br>7 days</font></center></div></div></div></div>,44927,stim,15,poldrack-single-stim,,A110KENBXU7SUJ
kirby_3_16,Self Regulation Pilot,948,,,test,kirby,2016-04-11T01:43:54.957587Z,,,0.0-5.0-11.0,81,75,119,"[80, 81]",,948,67,948,<div class = centerbox id='container'><p class = center-block-text>Please select the option that you would prefer pressing <strong>'q'</strong> for left <strong>'p'</strong> for right:</p><div class='table'><div class='row'><div id = 'option'><center><font color='green'>$67<br>today</font></center></div><div id = 'option'><center><font color='green'>$75<br>119 days</font></center></div></div></div></div>,46879,stim,16,poldrack-single-stim,,A110KENBXU7SUJ
kirby_3_17,Self Regulation Pilot,1047,,,test,kirby,2016-04-11T01:43:54.957587Z,,,0.0-5.0-12.0,81,35,186,"[80, 81]",,1047,34,1047,<div class = centerbox id='container'><p class = center-block-text>Please select the option that you would prefer pressing <strong>'q'</strong> for left <strong>'p'</strong> for right:</p><div class='table'><div class='row'><div id = 'option'><center><font color='green'>$34<br>today</font></center></div><div id = 'option'><center><font color='green'>$35<br>186 days</font></center></div></div></div></div>,48928,stim,17,poldrack-single-stim,,A110KENBXU7SUJ
kirby_3_18,Self Regulation Pilot,1107,,,test,kirby,2016-04-11T01:43:54.957587Z,,,0.0-5.0-13.0,80,50,21,"[80, 81]",,1107,27,1107,<div class = centerbox id='container'><p class = center-block-text>Please select the option that you would prefer pressing <strong>'q'</strong> for left <strong>'p'</strong> for right:</p><div class='table'><div class='row'><div id = 'option'><center><font color='green'>$27<br>today</font></center></div><div id = 'option'><center><font color='green'>$50<br>21 days</font></center></div></div></div></div>,51039,stim,18,poldrack-single-stim,,A110KENBXU7SUJ
kirby_3_19,Self Regulation Pilot,1179,,,test,kirby,2016-04-11T01:43:54.957587Z,,,0.0-5.0-14.0,81,85,91,"[80, 81]",,1179,69,1179,<div class = centerbox id='container'><p class = center-block-text>Please select the option that you would prefer pressing <strong>'q'</strong> for left <strong>'p'</strong> for right:</p><div class='table'><div class='row'><div id = 'option'><center><font color='green'>$69<br>today</font></center></div><div id = 'option'><center><font color='green'>$85<br>91 days</font></center></div></div></div></div>,53253,stim,19,poldrack-single-stim,,A110KENBXU7SUJ
kirby_3_20,Self Regulation Pilot,1188,,,test,kirby,2016-04-11T01:43:54.957587Z,,,0.0-5.0-15.0,81,60,89,"[80, 81]",,1188,49,1188,<div class = centerbox id='container'><p class = center-block-text>Please select the option that you would prefer pressing <strong>'q'</strong> for left <strong>'p'</strong> for right:</p><div class='table'><div class='row'><div id = 'option'><center><font color='green'>$49<br>today</font></center></div><div id = 'option'><center><font color='green'>$60<br>89 days</font></center></div></div></div></div>,55443,stim,20,poldrack-single-stim,,A110KENBXU7SUJ
kirby_3_21,Self Regulation Pilot,1200,,,test,kirby,2016-04-11T01:43:54.957587Z,,,0.0-5.0-16.0,81,85,157,"[80, 81]",,1200,80,1200,<div class = centerbox id='container'><p class = center-block-text>Please select the option that you would prefer pressing <strong>'q'</strong> for left <strong>'p'</strong> for right:</p><div class='table'><div class='row'><div id = 'option'><center><font color='green'>$80<br>today</font></center></div><div id = 'option'><center><font color='green'>$85<br>157 days</font></center></div></div></div></div>,57644,stim,21,poldrack-single-stim,,A110KENBXU7SUJ
kirby_3_22,Self Regulation Pilot,1361,,,test,kirby,2016-04-11T01:43:54.957587Z,,,0.0-5.0-17.0,81,35,29,"[80, 81]",,1361,24,1361,<div class = centerbox id='container'><p class = center-block-text>Please select the option that you would prefer pressing <strong>'q'</strong> for left <strong>'p'</strong> for right:</p><div class='table'><div class='row'><div id = 'option'><center><font color='green'>$24<br>today</font></center></div><div id = 'option'><center><font color='green'>$35<br>29 days</font></center></div></div></div></div>,60006,stim,22,poldrack-single-stim,,A110KENBXU7SUJ
kirby_3_23,Self Regulation Pilot,1383,,,test,kirby,2016-04-11T01:43:54.957587Z,,,0.0-5.0-18.0,80,80,14,"[80, 81]",,1383,33,1383,<div class = centerbox id='container'><p class = center-block-text>Please select the option that you would prefer pressing <strong>'q'</strong> for left <strong>'p'</strong> for right:</p><div class='table'><div class='row'><div id = 'option'><center><font color='green'>$33<br>today</font></center></div><div id = 'option'><center><font color='green'>$80<br>14 days</font></center></div></div></div></div>,62392,stim,23,poldrack-single-stim,,A110KENBXU7SUJ
kirby_3_24,Self Regulation Pilot,1016,,,test,kirby,2016-04-11T01:43:54.957587Z,,,0.0-5.0-19.0,81,30,179,"[80, 81]",,1016,28,1016,<div class = centerbox id='container'><p class = center-block-text>Please select the option that you would prefer pressing <strong>'q'</strong> for left <strong>'p'</strong> for right:</p><div class='table'><div class='row'><div id = 'option'><center><font color='green'>$28<br>today</font></center></div><div id = 'option'><center><font color='green'>$30<br>179 days</font></center></div></div></div></div>,64410,stim,24,poldrack-single-stim,,A110KENBXU7SUJ
kirby_3_25,Self Regulation Pilot,1267,,,test,kirby,2016-04-11T01:43:54.957587Z,,,0.0-5.0-20.0,81,50,30,"[80, 81]",,1267,34,1267,<div class = centerbox id='container'><p class = center-block-text>Please select the option that you would prefer pressing <strong>'q'</strong> for left <strong>'p'</strong> for right:</p><div class='table'><div class='row'><div id = 'option'><center><font color='green'>$34<br>today</font></center></div><div id = 'option'><center><font color='green'>$50<br>30 days</font></center></div></div></div></div>,66679,stim,25,poldrack-single-stim,,A110KENBXU7SUJ
kirby_3_26,Self Regulation Pilot,1039,,,test,kirby,2016-04-11T01:43:54.957587Z,,,0.0-5.0-21.0,81,30,80,"[80, 81]",,1039,25,1039,<div class = centerbox id='container'><p class = center-block-text>Please select the option that you would prefer pressing <strong>'q'</strong> for left <strong>'p'</strong> for right:</p><div class='table'><div class='row'><div id = 'option'><center><font color='green'>$25<br>today</font></center></div><div id = 'option'><center><font color='green'>$30<br>80 days</font></center></div></div></div></div>,68720,stim,26,poldrack-single-stim,,A110KENBXU7SUJ
kirby_3_27,Self Regulation Pilot,1837,,,test,kirby,2016-04-11T01:43:54.957587Z,,,0.0-5.0-22.0,80,75,20,"[80, 81]",,1837,41,1837,<div class = centerbox id='container'><p class = center-block-text>Please select the option that you would prefer pressing <strong>'q'</strong> for left <strong>'p'</strong> for right:</p><div class='table'><div class='row'><div id = 'option'><center><font color='green'>$41<br>today</font></center></div><div id = 'option'><center><font color='green'>$75<br>20 days</font></center></div></div></div></div>,71561,stim,27,poldrack-single-stim,,A110KENBXU7SUJ
kirby_3_28,Self Regulation Pilot,943,,,test,kirby,2016-04-11T01:43:54.957587Z,,,0.0-5.0-23.0,81,60,111,"[80, 81]",,943,54,943,<div class = centerbox id='container'><p class = center-block-text>Please select the option that you would prefer pressing <strong>'q'</strong> for left <strong>'p'</strong> for right:</p><div class='table'><div class='row'><div id = 'option'><center><font color='green'>$54<br>today</font></center></div><div id = 'option'><center><font color='green'>$60<br>111 days</font></center></div></div></div></div>,73508,stim,28,poldrack-single-stim,,A110KENBXU7SUJ
kirby_3_29,Self Regulation Pilot,1523,,,test,kirby,2016-04-11T01:43:54.957587Z,,,0.0-5.0-24.0,80,80,30,"[80, 81]",,1523,54,1523,<div class = centerbox id='container'><p class = center-block-text>Please select the option that you would prefer pressing <strong>'q'</strong> for left <strong>'p'</strong> for right:</p><div class='table'><div class='row'><div id = 'option'><center><font color='green'>$54<br>today</font></center></div><div id = 'option'><center><font color='green'>$80<br>30 days</font></center></div></div></div></div>,76034,stim,29,poldrack-single-stim,,A110KENBXU7SUJ
kirby_3_30,Self Regulation Pilot,963,,,test,kirby,2016-04-11T01:43:54.957587Z,,,0.0-5.0-25.0,81,25,136,"[80, 81]",,963,22,963,<div class = centerbox id='container'><p class = center-block-text>Please select the option that you would prefer pressing <strong>'q'</strong> for left <strong>'p'</strong> for right:</p><div class='table'><div class='row'><div id = 'option'><center><font color='green'>$22<br>today</font></center></div><div id = 'option'><center><font color='green'>$25<br>136 days</font></center></div></div></div></div>,78000,stim,30,poldrack-single-stim,,A110KENBXU7SUJ
kirby_3_31,Self Regulation Pilot,1220,,,test,kirby,2016-04-11T01:43:54.957587Z,,,0.0-5.0-26.0,80,55,7,"[80, 81]",,1220,20,1220,<div class = centerbox id='container'><p class = center-block-text>Please select the option that you would prefer pressing <strong>'q'</strong> for left <strong>'p'</strong> for right:</p><div class='table'><div class='row'><div id = 'option'><center><font color='green'>$20<br>today</font></center></div><div id = 'option'><center><font color='green'>$55<br>7 days</font></center></div></div></div></div>,80223,stim,31,poldrack-single-stim,,A110KENBXU7SUJ
kirby_3_32,Self Regulation Pilot,,,,,kirby,2016-04-11T01:43:54.957587Z,,,0.0-7.0,,,,,"{""Q0"":""Determine which amount of money would be acceptable ($ amount and time to be paid) knowing that one may be a bonus amount."",""Q1"":""""}",29551,,,,110781,post task questions,32,survey-text,,A110KENBXU7SUJ
kirby_3_33,Self Regulation Pilot,,,,,kirby,2016-04-11T01:43:54.957587Z,,,0.0-8.0,13,,,,,1337,,,,113120,end,33,poldrack-text,,A110KENBXU7SUJ
kirby_4_0,Self Regulation Pilot,,,kirby,,kirby,2016-05-16T06:39:26.447451Z,0,TRUE,0.0-0.0-0.0,13,,,,,1180,,,,1180,instruction,0,poldrack-text,,A11YS0T8MV3Q7C
kirby_4_1,Self Regulation Pilot,,,kirby,,kirby,2016-05-16T06:39:26.447451Z,0,TRUE,0.0-0.0-1.0,,,,,,14241,,,,15431,instruction,1,poldrack-instructions,"[{""page_index"":0,""viewing_time"":14241}]",A11YS0T8MV3Q7C
kirby_4_2,Self Regulation Pilot,,,kirby,,kirby,2016-05-16T06:39:26.447451Z,0,TRUE,0.0-1.0,13,,,,,1187,,,,17631,practice_intro,2,poldrack-text,,A11YS0T8MV3Q7C
kirby_4_3,Self Regulation Pilot,2203,,kirby,practice,kirby,2016-05-16T06:39:26.447451Z,0,TRUE,0.0-2.0,80,,,"[80, 81]",,2203,,2203,<div class = centerbox id='container'><p class = center-block-text>Please select the option that you would prefer pressing <strong>'q'</strong> for left <strong>'p'</strong> for right:</p><div class='table'><div class='row'><div id = 'option'><center><font color='green'>$20<br>today</font></center></div><div id = 'option'><center><font color='green'>$25<br>5 days</font></center></div></div></div></div>,20843,stim,3,poldrack-single-stim,,A11YS0T8MV3Q7C
kirby_4_4,Self Regulation Pilot,,,kirby,,kirby,2016-05-16T06:39:26.447451Z,0,TRUE,0.0-4.0,13,,,,,1282,,,,23131,test_intro,4,poldrack-text,,A11YS0T8MV3Q7C
kirby_4_5,Self Regulation Pilot,1333,smaller_sooner,kirby,test,kirby,2016-05-16T06:39:26.447451Z,0,TRUE,0.0-5.0-0.0,81,55,117,"[80, 81]",,1333,54,1333,<div class = centerbox id='container'><p class = center-block-text>Please select the option that you would prefer pressing <strong>'q'</strong> for left <strong>'p'</strong> for right:</p><div class='table'><div class='row'><div id = 'option'><center><font color='green'>$54<br>today</font></center></div><div id = 'option'><center><font color='green'>$55<br>117 days</font></center></div></div></div></div>,25472,stim,5,poldrack-single-stim,,A11YS0T8MV3Q7C
kirby_4_6,Self Regulation Pilot,2047,smaller_sooner,kirby,test,kirby,2016-05-16T06:39:26.447451Z,0,TRUE,0.0-5.0-1.0,81,75,61,"[80, 81]",,2047,55,2047,<div class = centerbox id='container'><p class = center-block-text>Please select the option that you would prefer pressing <strong>'q'</strong> for left <strong>'p'</strong> for right:</p><div class='table'><div class='row'><div id = 'option'><center><font color='green'>$55<br>today</font></center></div><div id = 'option'><center><font color='green'>$75<br>61 days</font></center></div></div></div></div>,28536,stim,6,poldrack-single-stim,,A11YS0T8MV3Q7C
kirby_4_7,Self Regulation Pilot,1433,smaller_sooner,kirby,test,kirby,2016-05-16T06:39:26.447451Z,0,TRUE,0.0-5.0-2.0,81,25,53,"[80, 81]",,1433,19,1433,<div class = centerbox id='container'><p class = center-block-text>Please select the option that you would prefer pressing <strong>'q'</strong> for left <strong>'p'</strong> for right:</p><div class='table'><div class='row'><div id = 'option'><center><font color='green'>$19<br>today</font></center></div><div id = 'option'><center><font color='green'>$25<br>53 days</font></center></div></div></div></div>,30976,stim,7,poldrack-single-stim,,A11YS0T8MV3Q7C
kirby_4_8,Self Regulation Pilot,1524,larger_later,kirby,test,kirby,2016-05-16T06:39:26.447451Z,0,TRUE,0.0-5.0-3.0,80,85,7,"[80, 81]",,1524,31,1524,<div class = centerbox id='container'><p class = center-block-text>Please select the option that you would prefer pressing <strong>'q'</strong> for left <strong>'p'</strong> for right:</p><div class='table'><div class='row'><div id = 'option'><center><font color='green'>$31<br>today</font></center></div><div id = 'option'><center><font color='green'>$85<br>7 days</font></center></div></div></div></div>,33511,stim,8,poldrack-single-stim,,A11YS0T8MV3Q7C
kirby_4_9,Self Regulation Pilot,1356,smaller_sooner,kirby,test,kirby,2016-05-16T06:39:26.447451Z,0,TRUE,0.0-5.0-4.0,81,25,19,"[80, 81]",,1356,14,1356,<div class = centerbox id='container'><p class = center-block-text>Please select the option that you would prefer pressing <strong>'q'</strong> for left <strong>'p'</strong> for right:</p><div class='table'><div class='row'><div id = 'option'><center><font color='green'>$14<br>today</font></center></div><div id = 'option'><center><font color='green'>$25<br>19 days</font></center></div></div></div></div>,35875,stim,9,poldrack-single-stim,,A11YS0T8MV3Q7C
kirby_4_10,Self Regulation Pilot,1353,smaller_sooner,kirby,test,kirby,2016-05-16T06:39:26.447451Z,0,TRUE,0.0-5.0-5.0,81,50,160,"[80, 81]",,1353,47,1353,<div class = centerbox id='container'><p class = center-block-text>Please select the option that you would prefer pressing <strong>'q'</strong> for left <strong>'p'</strong> for right:</p><div class='table'><div class='row'><div id = 'option'><center><font color='green'>$47<br>today</font></center></div><div id = 'option'><center><font color='green'>$50<br>160 days</font></center></div></div></div></div>,38235,stim,10,poldrack-single-stim,,A11YS0T8MV3Q7C
kirby_4_11,Self Regulation Pilot,2017,larger_later,kirby,test,kirby,2016-05-16T06:39:26.447451Z,0,TRUE,0.0-5.0-6.0,80,35,13,"[80, 81]",,2017,15,2017,<div class = centerbox id='container'><p class = center-block-text>Please select the option that you would prefer pressing <strong>'q'</strong> for left <strong>'p'</strong> for right:</p><div class='table'><div class='row'><div id = 'option'><center><font color='green'>$15<br>today</font></center></div><div id = 'option'><center><font color='green'>$35<br>13 days</font></center></div></div></div></div>,41260,stim,11,poldrack-single-stim,,A11YS0T8MV3Q7C
kirby_4_12,Self Regulation Pilot,1612,larger_later,kirby,test,kirby,2016-05-16T06:39:26.447451Z,0,TRUE,0.0-5.0-7.0,80,60,14,"[80, 81]",,1612,25,1612,<div class = centerbox id='container'><p class = center-block-text>Please select the option that you would prefer pressing <strong>'q'</strong> for left <strong>'p'</strong> for right:</p><div class='table'><div class='row'><div id = 'option'><center><font color='green'>$25<br>today</font></center></div><div id = 'option'><center><font color='green'>$60<br>14 days</font></center></div></div></div></div>,43879,stim,12,poldrack-single-stim,,A11YS0T8MV3Q7C
kirby_4_13,Self Regulation Pilot,1227,smaller_sooner,kirby,test,kirby,2016-05-16T06:39:26.447451Z,0,TRUE,0.0-5.0-8.0,81,80,192,"[80, 81]",,1227,78,1227,<div class = centerbox id='container'><p class = center-block-text>Please select the option that you would prefer pressing <strong>'q'</strong> for left <strong>'p'</strong> for right:</p><div class='table'><div class='row'><div id = 'option'><center><font color='green'>$78<br>today</font></center></div><div id = 'option'><center><font color='green'>$80<br>192 days</font></center></div></div></div></div>,46112,stim,13,poldrack-single-stim,,A11YS0T8MV3Q7C
kirby_4_14,Self Regulation Pilot,1074,smaller_sooner,kirby,test,kirby,2016-05-16T06:39:26.447451Z,0,TRUE,0.0-5.0-9.0,81,55,62,"[80, 81]",,1074,40,1074,<div class = centerbox id='container'><p class = center-block-text>Please select the option that you would prefer pressing <strong>'q'</strong> for left <strong>'p'</strong> for right:</p><div class='table'><div class='row'><div id = 'option'><center><font color='green'>$40<br>today</font></center></div><div id = 'option'><center><font color='green'>$55<br>62 days</font></center></div></div></div></div>,48211,stim,14,poldrack-single-stim,,A11YS0T8MV3Q7C
kirby_4_15,Self Regulation Pilot,3016,larger_later,kirby,test,kirby,2016-05-16T06:39:26.447451Z,0,TRUE,0.0-5.0-10.0,80,30,7,"[80, 81]",,3016,11,3016,<div class = centerbox id='container'><p class = center-block-text>Please select the option that you would prefer pressing <strong>'q'</strong> for left <strong>'p'</strong> for right:</p><div class='table'><div class='row'><div id = 'option'><center><font color='green'>$11<br>today</font></center></div><div id = 'option'><center><font color='green'>$30<br>7 days</font></center></div></div></div></div>,52233,stim,15,poldrack-single-stim,,A11YS0T8MV3Q7C
kirby_4_16,Self Regulation Pilot,1713,smaller_sooner,kirby,test,kirby,2016-05-16T06:39:26.447451Z,0,TRUE,0.0-5.0-11.0,81,75,119,"[80, 81]",,1713,67,1713,<div class = centerbox id='container'><p class = center-block-text>Please select the option that you would prefer pressing <strong>'q'</strong> for left <strong>'p'</strong> for right:</p><div class='table'><div class='row'><div id = 'option'><center><font color='green'>$67<br>today</font></center></div><div id = 'option'><center><font color='green'>$75<br>119 days</font></center></div></div></div></div>,54956,stim,16,poldrack-single-stim,,A11YS0T8MV3Q7C
kirby_4_17,Self Regulation Pilot,1142,smaller_sooner,kirby,test,kirby,2016-05-16T06:39:26.447451Z,0,TRUE,0.0-5.0-12.0,81,35,186,"[80, 81]",,1142,34,1142,<div class = centerbox id='container'><p class = center-block-text>Please select the option that you would prefer pressing <strong>'q'</strong> for left <strong>'p'</strong> for right:</p><div class='table'><div class='row'><div id = 'option'><center><font color='green'>$34<br>today</font></center></div><div id = 'option'><center><font color='green'>$35<br>186 days</font></center></div></div></div></div>,57108,stim,17,poldrack-single-stim,,A11YS0T8MV3Q7C
kirby_4_18,Self Regulation Pilot,1413,smaller_sooner,kirby,test,kirby,2016-05-16T06:39:26.447451Z,0,TRUE,0.0-5.0-13.0,81,50,21,"[80, 81]",,1413,27,1413,<div class = centerbox id='container'><p class = center-block-text>Please select the option that you would prefer pressing <strong>'q'</strong> for left <strong>'p'</strong> for right:</p><div class='table'><div class='row'><div id = 'option'><center><font color='green'>$27<br>today</font></center></div><div id = 'option'><center><font color='green'>$50<br>21 days</font></center></div></div></div></div>,59531,stim,18,poldrack-single-stim,,A11YS0T8MV3Q7C
kirby_4_19,Self Regulation Pilot,2087,smaller_sooner,kirby,test,kirby,2016-05-16T06:39:26.447451Z,0,TRUE,0.0-5.0-14.0,81,85,91,"[80, 81]",,2087,69,2087,<div class = centerbox id='container'><p class = center-block-text>Please select the option that you would prefer pressing <strong>'q'</strong> for left <strong>'p'</strong> for right:</p><div class='table'><div class='row'><div id = 'option'><center><font color='green'>$69<br>today</font></center></div><div id = 'option'><center><font color='green'>$85<br>91 days</font></center></div></div></div></div>,62629,stim,19,poldrack-single-stim,,A11YS0T8MV3Q7C
kirby_4_20,Self Regulation Pilot,1903,smaller_sooner,kirby,test,kirby,2016-05-16T06:39:26.447451Z,0,TRUE,0.0-5.0-15.0,81,60,89,"[80, 81]",,1903,49,1903,<div class = centerbox id='container'><p class = center-block-text>Please select the option that you would prefer pressing <strong>'q'</strong> for left <strong>'p'</strong> for right:</p><div class='table'><div class='row'><div id = 'option'><center><font color='green'>$49<br>today</font></center></div><div id = 'option'><center><font color='green'>$60<br>89 days</font></center></div></div></div></div>,65546,stim,20,poldrack-single-stim,,A11YS0T8MV3Q7C
kirby_4_21,Self Regulation Pilot,1146,smaller_sooner,kirby,test,kirby,2016-05-16T06:39:26.447451Z,0,TRUE,0.0-5.0-16.0,81,85,157,"[80, 81]",,1146,80,1146,<div class = centerbox id='container'><p class = center-block-text>Please select the option that you would prefer pressing <strong>'q'</strong> for left <strong>'p'</strong> for right:</p><div class='table'><div class='row'><div id = 'option'><center><font color='green'>$80<br>today</font></center></div><div id = 'option'><center><font color='green'>$85<br>157 days</font></center></div></div></div></div>,67700,stim,21,poldrack-single-stim,,A11YS0T8MV3Q7C
kirby_4_22,Self Regulation Pilot,2001,smaller_sooner,kirby,test,kirby,2016-05-16T06:39:26.447451Z,0,TRUE,0.0-5.0-17.0,81,35,29,"[80, 81]",,2001,24,2001,<div class = centerbox id='container'><p class = center-block-text>Please select the option that you would prefer pressing <strong>'q'</strong> for left <strong>'p'</strong> for right:</p><div class='table'><div class='row'><div id = 'option'><center><font color='green'>$24<br>today</font></center></div><div id = 'option'><center><font color='green'>$35<br>29 days</font></center></div></div></div></div>,70714,stim,22,poldrack-single-stim,,A11YS0T8MV3Q7C
kirby_4_23,Self Regulation Pilot,1293,larger_later,kirby,test,kirby,2016-05-16T06:39:26.447451Z,0,TRUE,0.0-5.0-18.0,80,80,14,"[80, 81]",,1293,33,1293,<div class = centerbox id='container'><p class = center-block-text>Please select the option that you would prefer pressing <strong>'q'</strong> for left <strong>'p'</strong> for right:</p><div class='table'><div class='row'><div id = 'option'><center><font color='green'>$33<br>today</font></center></div><div id = 'option'><center><font color='green'>$80<br>14 days</font></center></div></div></div></div>,73016,stim,23,poldrack-single-stim,,A11YS0T8MV3Q7C
kirby_4_24,Self Regulation Pilot,1126,smaller_sooner,kirby,test,kirby,2016-05-16T06:39:26.447451Z,0,TRUE,0.0-5.0-19.0,81,30,179,"[80, 81]",,1126,28,1126,<div class = centerbox id='container'><p class = center-block-text>Please select the option that you would prefer pressing <strong>'q'</strong> for left <strong>'p'</strong> for right:</p><div class='table'><div class='row'><div id = 'option'><center><font color='green'>$28<br>today</font></center></div><div id = 'option'><center><font color='green'>$30<br>179 days</font></center></div></div></div></div>,75146,stim,24,poldrack-single-stim,,A11YS0T8MV3Q7C
kirby_4_25,Self Regulation Pilot,1123,smaller_sooner,kirby,test,kirby,2016-05-16T06:39:26.447451Z,0,TRUE,0.0-5.0-20.0,81,50,30,"[80, 81]",,1123,34,1123,<div class = centerbox id='container'><p class = center-block-text>Please select the option that you would prefer pressing <strong>'q'</strong> for left <strong>'p'</strong> for right:</p><div class='table'><div class='row'><div id = 'option'><center><font color='green'>$34<br>today</font></center></div><div id = 'option'><center><font color='green'>$50<br>30 days</font></center></div></div></div></div>,77282,stim,25,poldrack-single-stim,,A11YS0T8MV3Q7C
kirby_4_26,Self Regulation Pilot,1396,smaller_sooner,kirby,test,kirby,2016-05-16T06:39:26.447451Z,0,TRUE,0.0-5.0-21.0,81,30,80,"[80, 81]",,1396,25,1396,<div class = centerbox id='container'><p class = center-block-text>Please select the option that you would prefer pressing <strong>'q'</strong> for left <strong>'p'</strong> for right:</p><div class='table'><div class='row'><div id = 'option'><center><font color='green'>$25<br>today</font></center></div><div id = 'option'><center><font color='green'>$30<br>80 days</font></center></div></div></div></div>,79684,stim,26,poldrack-single-stim,,A11YS0T8MV3Q7C
kirby_4_27,Self Regulation Pilot,1756,larger_later,kirby,test,kirby,2016-05-16T06:39:26.447451Z,0,TRUE,0.0-5.0-22.0,80,75,20,"[80, 81]",,1756,41,1756,<div class = centerbox id='container'><p class = center-block-text>Please select the option that you would prefer pressing <strong>'q'</strong> for left <strong>'p'</strong> for right:</p><div class='table'><div class='row'><div id = 'option'><center><font color='green'>$41<br>today</font></center></div><div id = 'option'><center><font color='green'>$75<br>20 days</font></center></div></div></div></div>,82454,stim,27,poldrack-single-stim,,A11YS0T8MV3Q7C
kirby_4_28,Self Regulation Pilot,1662,smaller_sooner,kirby,test,kirby,2016-05-16T06:39:26.447451Z,0,TRUE,0.0-5.0-23.0,81,60,111,"[80, 81]",,1662,54,1662,<div class = centerbox id='container'><p class = center-block-text>Please select the option that you would prefer pressing <strong>'q'</strong> for left <strong>'p'</strong> for right:</p><div class='table'><div class='row'><div id = 'option'><center><font color='green'>$54<br>today</font></center></div><div id = 'option'><center><font color='green'>$60<br>111 days</font></center></div></div></div></div>,85130,stim,28,poldrack-single-stim,,A11YS0T8MV3Q7C
kirby_4_29,Self Regulation Pilot,1306,smaller_sooner,kirby,test,kirby,2016-05-16T06:39:26.447451Z,0,TRUE,0.0-5.0-24.0,81,80,30,"[80, 81]",,1306,54,1306,<div class = centerbox id='container'><p class = center-block-text>Please select the option that you would prefer pressing <strong>'q'</strong> for left <strong>'p'</strong> for right:</p><div class='table'><div class='row'><div id = 'option'><center><font color='green'>$54<br>today</font></center></div><div id = 'option'><center><font color='green'>$80<br>30 days</font></center></div></div></div></div>,87453,stim,29,poldrack-single-stim,,A11YS0T8MV3Q7C
kirby_4_30,Self Regulation Pilot,1137,smaller_sooner,kirby,test,kirby,2016-05-16T06:39:26.447451Z,0,TRUE,0.0-5.0-25.0,81,25,136,"[80, 81]",,1137,22,1137,<div class = centerbox id='container'><p class = center-block-text>Please select the option that you would prefer pressing <strong>'q'</strong> for left <strong>'p'</strong> for right:</p><div class='table'><div class='row'><div id = 'option'><center><font color='green'>$22<br>today</font></center></div><div id = 'option'><center><font color='green'>$25<br>136 days</font></center></div></div></div></div>,89600,stim,30,poldrack-single-stim,,A11YS0T8MV3Q7C
kirby_4_31,Self Regulation Pilot,1127,larger_later,kirby,test,kirby,2016-05-16T06:39:26.447451Z,0,TRUE,0.0-5.0-26.0,80,55,7,"[80, 81]",,1127,20,1127,<div class = centerbox id='container'><p class = center-block-text>Please select the option that you would prefer pressing <strong>'q'</strong> for left <strong>'p'</strong> for right:</p><div class='table'><div class='row'><div id = 'option'><center><font color='green'>$20<br>today</font></center></div><div id = 'option'><center><font color='green'>$55<br>7 days</font></center></div></div></div></div>,91733,stim,31,poldrack-single-stim,,A11YS0T8MV3Q7C
kirby_4_32,Self Regulation Pilot,,,kirby,,kirby,2016-05-16T06:39:26.447451Z,0,TRUE,0.0-7.0,,,,,"{""Q0"":""In this task, you had to select your preference between two cash options using either the q button for left and the p button for right. "",""Q1"":""Great option task. ""}",38001,,,,130746,post task questions,32,survey-text,,A11YS0T8MV3Q7C
kirby_4_33,Self Regulation Pilot,,,kirby,,kirby,2016-05-16T06:39:26.447451Z,0,TRUE,0.0-8.0,13,,,,,1035,,,,132795,end,33,poldrack-text,,A11YS0T8MV3Q7C
kirby_5_0,Self Regulation Pilot,,,kirby,,kirby,2016-04-18T17:21:24.892610Z,3,TRUE,0.0-0.0-0.0,13,,,,,1950,,,,1952,instruction,0,poldrack-text,,A16ICTTBPD7Q6Y
kirby_5_1,Self Regulation Pilot,,,kirby,,kirby,2016-04-18T17:21:24.892610Z,0,TRUE,0.0-0.0-1.0,,,,,,19095,,,,21057,instruction,1,poldrack-instructions,"[{""page_index"":0,""viewing_time"":19093}]",A16ICTTBPD7Q6Y
kirby_5_2,Self Regulation Pilot,,,kirby,,kirby,2016-04-18T17:21:24.892610Z,0,TRUE,0.0-1.0,13,,,,,3538,,,,25603,practice_intro,2,poldrack-text,,A16ICTTBPD7Q6Y
kirby_5_3,Self Regulation Pilot,1608,,kirby,practice,kirby,2016-04-18T17:21:24.892610Z,0,TRUE,0.0-2.0,80,,,"[80, 81]",,1608,,1608,<div class = centerbox id='container'><p class = center-block-text>Please select the option that you would prefer pressing <strong>'q'</strong> for left <strong>'p'</strong> for right:</p><div class='table'><div class='row'><div id = 'option'><center><font color='green'>$20<br>today</font></center></div><div id = 'option'><center><font color='green'>$25<br>5 days</font></center></div></div></div></div>,28216,stim,3,poldrack-single-stim,,A16ICTTBPD7Q6Y
kirby_5_4,Self Regulation Pilot,,,kirby,,kirby,2016-04-18T17:21:24.892610Z,0,TRUE,0.0-4.0,13,,,,,2130,,,,31353,test_intro,4,poldrack-text,,A16ICTTBPD7Q6Y
kirby_5_5,Self Regulation Pilot,4392,smaller_sooner,kirby,test,kirby,2016-04-18T17:21:24.892610Z,0,TRUE,0.0-5.0-0.0,81,55,117,"[80, 81]",,4392,54,4392,<div class = centerbox id='container'><p class = center-block-text>Please select the option that you would prefer pressing <strong>'q'</strong> for left <strong>'p'</strong> for right:</p><div class='table'><div class='row'><div id = 'option'><center><font color='green'>$54<br>today</font></center></div><div id = 'option'><center><font color='green'>$55<br>117 days</font></center></div></div></div></div>,36750,stim,5,poldrack-single-stim,,A16ICTTBPD7Q6Y
kirby_5_6,Self Regulation Pilot,2558,larger_later,kirby,test,kirby,2016-04-18T17:21:24.892610Z,0,TRUE,0.0-5.0-1.0,80,75,61,"[80, 81]",,2558,55,2558,<div class = centerbox id='container'><p class = center-block-text>Please select the option that you would prefer pressing <strong>'q'</strong> for left <strong>'p'</strong> for right:</p><div class='table'><div class='row'><div id = 'option'><center><font color='green'>$55<br>today</font></center></div><div id = 'option'><center><font color='green'>$75<br>61 days</font></center></div></div></div></div>,40336,stim,6,poldrack-single-stim,,A16ICTTBPD7Q6Y
kirby_5_7,Self Regulation Pilot,1913,larger_later,kirby,test,kirby,2016-04-18T17:21:24.892610Z,0,TRUE,0.0-5.0-2.0,80,25,53,"[80, 81]",,1913,19,1913,<div class = centerbox id='container'><p class = center-block-text>Please select the option that you would prefer pressing <strong>'q'</strong> for left <strong>'p'</strong> for right:</p><div class='table'><div class='row'><div id = 'option'><center><font color='green'>$19<br>today</font></center></div><div id = 'option'><center><font color='green'>$25<br>53 days</font></center></div></div></div></div>,43257,stim,7,poldrack-single-stim,,A16ICTTBPD7Q6Y
kirby_5_8,Self Regulation Pilot,1602,larger_later,kirby,test,kirby,2016-04-18T17:21:24.892610Z,0,TRUE,0.0-5.0-3.0,80,85,7,"[80, 81]",,1602,31,1602,<div class = centerbox id='container'><p class = center-block-text>Please select the option that you would prefer pressing <strong>'q'</strong> for left <strong>'p'</strong> for right:</p><div class='table'><div class='row'><div id = 'option'><center><font color='green'>$31<br>today</font></center></div><div id = 'option'><center><font color='green'>$85<br>7 days</font></center></div></div></div></div>,45861,stim,8,poldrack-single-stim,,A16ICTTBPD7Q6Y
kirby_5_9,Self Regulation Pilot,1902,larger_later,kirby,test,kirby,2016-04-18T17:21:24.892610Z,0,TRUE,0.0-5.0-4.0,80,25,19,"[80, 81]",,1902,14,1902,<div class = centerbox id='container'><p class = center-block-text>Please select the option that you would prefer pressing <strong>'q'</strong> for left <strong>'p'</strong> for right:</p><div class='table'><div class='row'><div id = 'option'><center><font color='green'>$14<br>today</font></center></div><div id = 'option'><center><font color='green'>$25<br>19 days</font></center></div></div></div></div>,48765,stim,9,poldrack-single-stim,,A16ICTTBPD7Q6Y
kirby_5_10,Self Regulation Pilot,3004,larger_later,kirby,test,kirby,2016-04-18T17:21:24.892610Z,0,TRUE,0.0-5.0-5.0,80,50,160,"[80, 81]",,3004,47,3004,<div class = centerbox id='container'><p class = center-block-text>Please select the option that you would prefer pressing <strong>'q'</strong> for left <strong>'p'</strong> for right:</p><div class='table'><div class='row'><div id = 'option'><center><font color='green'>$47<br>today</font></center></div><div id = 'option'><center><font color='green'>$50<br>160 days</font></center></div></div></div></div>,52770,stim,10,poldrack-single-stim,,A16ICTTBPD7Q6Y
kirby_5_11,Self Regulation Pilot,1834,larger_later,kirby,test,kirby,2016-04-18T17:21:24.892610Z,0,TRUE,0.0-5.0-6.0,80,35,13,"[80, 81]",,1834,15,1834,<div class = centerbox id='container'><p class = center-block-text>Please select the option that you would prefer pressing <strong>'q'</strong> for left <strong>'p'</strong> for right:</p><div class='table'><div class='row'><div id = 'option'><center><font color='green'>$15<br>today</font></center></div><div id = 'option'><center><font color='green'>$35<br>13 days</font></center></div></div></div></div>,55606,stim,11,poldrack-single-stim,,A16ICTTBPD7Q6Y
kirby_5_12,Self Regulation Pilot,1337,larger_later,kirby,test,kirby,2016-04-18T17:21:24.892610Z,0,TRUE,0.0-5.0-7.0,80,60,14,"[80, 81]",,1337,25,1337,<div class = centerbox id='container'><p class = center-block-text>Please select the option that you would prefer pressing <strong>'q'</strong> for left <strong>'p'</strong> for right:</p><div class='table'><div class='row'><div id = 'option'><center><font color='green'>$25<br>today</font></center></div><div id = 'option'><center><font color='green'>$60<br>14 days</font></center></div></div></div></div>,57948,stim,12,poldrack-single-stim,,A16ICTTBPD7Q6Y
kirby_5_13,Self Regulation Pilot,3763,smaller_sooner,kirby,test,kirby,2016-04-18T17:21:24.892610Z,0,TRUE,0.0-5.0-8.0,81,80,192,"[80, 81]",,3763,78,3763,<div class = centerbox id='container'><p class = center-block-text>Please select the option that you would prefer pressing <strong>'q'</strong> for left <strong>'p'</strong> for right:</p><div class='table'><div class='row'><div id = 'option'><center><font color='green'>$78<br>today</font></center></div><div id = 'option'><center><font color='green'>$80<br>192 days</font></center></div></div></div></div>,62714,stim,13,poldrack-single-stim,,A16ICTTBPD7Q6Y
kirby_5_14,Self Regulation Pilot,2001,larger_later,kirby,test,kirby,2016-04-18T17:21:24.892610Z,0,TRUE,0.0-5.0-9.0,80,55,62,"[80, 81]",,2001,40,2001,<div class = centerbox id='container'><p class = center-block-text>Please select the option that you would prefer pressing <strong>'q'</strong> for left <strong>'p'</strong> for right:</p><div class='table'><div class='row'><div id = 'option'><center><font color='green'>$40<br>today</font></center></div><div id = 'option'><center><font color='green'>$55<br>62 days</font></center></div></div></div></div>,65720,stim,14,poldrack-single-stim,,A16ICTTBPD7Q6Y
kirby_5_15,Self Regulation Pilot,1241,larger_later,kirby,test,kirby,2016-04-18T17:21:24.892610Z,0,TRUE,0.0-5.0-10.0,80,30,7,"[80, 81]",,1241,11,1241,<div class = centerbox id='container'><p class = center-block-text>Please select the option that you would prefer pressing <strong>'q'</strong> for left <strong>'p'</strong> for right:</p><div class='table'><div class='row'><div id = 'option'><center><font color='green'>$11<br>today</font></center></div><div id = 'option'><center><font color='green'>$30<br>7 days</font></center></div></div></div></div>,67964,stim,15,poldrack-single-stim,,A16ICTTBPD7Q6Y
kirby_5_16,Self Regulation Pilot,2019,larger_later,kirby,test,kirby,2016-04-18T17:21:24.892610Z,0,TRUE,0.0-5.0-11.0,80,75,119,"[80, 81]",,2019,67,2019,<div class = centerbox id='container'><p class = center-block-text>Please select the option that you would prefer pressing <strong>'q'</strong> for left <strong>'p'</strong> for right:</p><div class='table'><div class='row'><div id = 'option'><center><font color='green'>$67<br>today</font></center></div><div id = 'option'><center><font color='green'>$75<br>119 days</font></center></div></div></div></div>,70987,stim,16,poldrack-single-stim,,A16ICTTBPD7Q6Y
